aX,aY,aZ,gX,gY,gZ
1.000,0.108,-0.155,5.493,-11.536,-15.137
0.982,0.111,-0.231,0.000,-5.371,-14.465
0.939,0.060,-0.167,-5.432,3.357,-9.277
1.010,-0.003,-0.034,-14.343,8.789,-2.502
1.019,-0.015,-0.044,-14.526,2.808,4.150
1.067,-0.061,-0.087,-10.559,-12.634,9.888
1.046,-0.053,-0.152,-5.249,-31.433,13.733
1.040,-0.070,-0.191,-1.770,-45.471,16.785
1.046,-0.083,-0.155,2.136,-54.565,20.752
1.015,-0.059,-0.099,12.085,-58.105,19.653
0.959,-0.029,-0.016,23.499,-52.795,16.052
0.948,-0.016,0.068,37.170,-38.513,7.996
0.988,-0.079,0.040,54.993,-19.836,-1.038
1.079,-0.235,-0.093,68.237,-3.784,-7.935
1.230,-0.415,-0.138,66.345,4.456,-11.047
1.304,-0.552,-0.070,44.983,1.404,-10.620
1.355,-0.579,-0.233,21.973,-8.301,-5.554
1.370,-0.788,-0.172,26.123,-10.559,5.127
1.314,-0.918,-0.052,47.180,-0.488,21.179
1.407,-0.876,0.164,72.388,17.761,40.161
1.563,-0.911,0.109,80.688,34.119,35.095
1.436,-0.877,-0.008,91.309,42.542,37.048
1.393,-0.907,-0.028,114.624,52.917,44.983
1.407,-0.873,-0.042,139.832,63.232,54.810
1.580,-1.215,-0.172,165.649,72.632,74.341
1.757,-1.810,-0.289,165.222,75.378,88.135
1.717,-1.862,-0.535,124.817,70.007,88.196
1.435,-1.769,-0.797,60.791,65.430,84.229
1.185,-1.582,-0.482,-19.775,71.228,109.436
1.251,-0.999,-0.169,-92.896,79.529,138.611
1.768,-0.528,-0.330,-85.205,61.890,104.614
1.697,-0.500,-0.452,-0.122,37.903,32.837
1.049,-0.771,-0.512,62.317,12.939,0.244
0.512,-0.643,-0.593,70.007,2.502,7.324
0.303,-0.155,-0.527,44.983,8.118,12.756
0.136,0.216,-0.456,36.682,9.216,4.211
-0.035,0.449,-0.468,59.204,-5.493,4.211
0.080,0.801,-0.557,83.130,-21.423,28.687
0.014,1.113,-0.747,76.233,-19.653,51.392
-0.273,1.258,-0.873,19.531,3.967,70.984
-0.355,1.590,-0.708,-77.698,37.415,92.224
-0.398,2.090,-0.365,-156.799,42.358,109.924
-0.357,2.515,-0.016,-180.054,8.728,128.113
-0.148,2.714,0.232,-161.072,-33.508,146.057
0.247,2.716,0.393,-135.193,-56.580,153.870
0.491,2.574,0.550,-115.540,-69.641,152.039
0.527,2.348,0.426,-87.280,-88.013,139.160
0.894,2.446,1.245,-57.739,-106.628,104.553
1.250,2.428,0.795,-18.005,-183.960,50.964
1.538,2.118,0.679,37.476,-250.366,9.827
1.443,1.666,0.819,76.111,-265.015,-5.981
0.951,1.452,0.923,74.219,-243.408,-13.733
0.495,1.365,0.625,52.063,-208.496,-22.888
0.164,1.153,0.460,49.316,-147.827,-23.926
0.025,1.020,0.346,62.439,-69.458,-18.127
0.147,0.928,0.239,80.200,6.165,-18.311
0.274,0.888,0.193,95.459,60.730,-22.400
0.401,0.897,0.172,102.417,82.703,-21.362
0.407,0.996,0.104,102.417,74.829,-20.630
0.343,1.080,0.074,102.539,58.655,-22.461
0.341,1.157,0.051,111.267,51.025,-29.175
0.412,1.233,-0.030,129.211,53.467,-46.387
0.575,1.231,-0.071,142.273,68.054,-64.514
0.892,1.069,-0.109,152.466,68.176,-70.129
0.787,0.494,0.308,150.940,5.310,-65.308
0.434,0.484,0.433,130.798,-18.860,-94.727
0.400,0.970,0.281,101.990,-23.560,-132.874
0.521,0.869,0.217,116.333,-32.288,-132.812
0.532,0.344,0.250,156.799,-43.945,-112.732
0.380,0.420,0.044,159.912,-60.486,-92.896
0.450,0.177,-0.394,100.586,-74.158,-66.650
0.783,0.166,-0.629,36.987,-60.425,-65.430
0.624,0.764,-0.610,-8.606,-18.982,-48.767
0.761,0.411,-0.592,-11.658,24.780,-27.710
0.658,0.601,-0.421,-23.315,61.951,1.038
0.988,0.475,-0.038,-3.479,93.323,15.503
0.895,0.327,0.118,11.047,90.088,4.639
0.876,0.584,0.190,-18.433,58.960,6.958
1.110,0.537,0.213,-14.221,33.691,-1.221
1.029,0.146,0.140,7.629,15.991,-15.137
0.903,-0.099,-0.096,-0.549,5.920,-15.442
0.871,-0.134,-0.149,-11.353,12.512,-19.836
0.871,-0.081,-0.108,-17.517,28.687,-19.165
0.891,0.047,0.029,-22.644,38.452,-12.451
0.983,0.253,0.257,-20.386,33.203,-0.488
1.059,0.164,0.200,-20.813,7.507,18.677
1.146,0.117,0.394,-33.875,-27.283,29.236
0.973,0.128,0.168,-43.823,-73.486,27.649
1.137,0.243,-0.008,-42.847,-102.783,23.743
1.213,0.270,0.035,-31.250,-102.539,22.156
1.244,-0.102,0.002,-15.808,-92.285,31.311
1.205,-0.409,-0.050,1.343,-81.299,26.978
1.100,-0.591,-0.023,16.235,-65.918,11.536
0.997,-0.634,-0.047,29.236,-50.842,-6.042
0.974,-0.545,-0.115,32.227,-37.415,-11.353
0.995,-0.469,-0.063,18.311,-19.287,-9.460
0.982,-0.253,0.063,3.052,-4.333,-11.230
1.040,-0.122,0.126,17.700,9.705,-17.273
1.117,-0.016,0.077,38.391,13.855,-15.808
1.190,0.011,0.008,45.166,14.404,-8.179
1.289,-0.132,0.027,50.903,20.203,-1.465
1.328,-0.283,0.056,62.256,25.757,-2.258
1.270,-0.394,-0.077,74.402,32.776,-8.118
1.193,-0.456,-0.218,70.679,40.710,-12.695
1.235,-0.357,-0.260,60.059,50.720,-11.169
1.099,-0.197,-0.186,51.697,58.716,1.343
1.089,-0.151,-0.101,41.504,51.941,14.099
1.277,-0.178,0.061,26.917,29.785,13.062
1.382,-0.191,0.135,27.344,3.601,-6.226
1.263,-0.015,0.093,39.490,-20.752,-31.616
1.212,0.131,0.136,90.210,-30.884,-46.143
1.247,0.196,0.185,134.705,-22.034,-62.195
1.251,0.308,0.175,107.300,-10.559,-70.984
1.172,0.329,0.141,75.073,-11.230,-62.561
1.051,0.180,0.075,55.176,-14.648,-43.213
0.963,0.075,0.029,39.917,-13.428,-26.550
0.924,0.050,0.104,40.649,-8.423,-18.494
0.963,0.056,0.180,49.072,-0.610,-19.043
1.004,-0.025,0.100,51.697,5.676,-22.705

0.987,-0.088,0.179,-28.931,11.475,3.967
0.949,-0.162,0.186,-29.602,10.254,7.446
0.933,-0.178,0.262,-33.752,14.832,10.681
0.978,-0.176,0.270,-37.720,17.029,13.367
1.029,-0.245,0.295,-30.762,19.104,19.531
1.071,-0.352,0.274,-21.729,19.348,24.780
1.112,-0.458,0.245,-12.817,18.250,27.039
1.176,-0.562,0.207,-6.653,17.212,27.649
1.211,-0.648,0.205,-4.028,16.357,26.306
1.224,-0.700,0.238,-3.113,16.846,23.621
1.228,-0.737,0.269,-0.854,20.264,19.165
1.218,-0.791,0.270,4.944,28.625,13.184
1.229,-0.891,0.232,12.817,40.100,7.324
1.241,-0.990,0.121,20.752,52.490,2.747
1.251,-1.129,-0.004,27.222,65.857,2.319
1.282,-1.267,-0.120,29.907,77.515,4.089
1.302,-1.385,-0.266,25.513,89.233,5.005
1.257,-1.233,-0.171,8.545,97.290,7.080
1.195,-1.146,-0.153,-1.282,99.792,13.733
1.184,-1.125,-0.016,-8.057,102.173,24.475
1.174,-1.095,0.021,-16.174,95.459,35.889
1.168,-1.062,0.099,-21.423,80.627,46.082
1.201,-1.000,0.052,-17.944,57.373,57.373
1.212,-0.886,0.009,-16.113,34.607,71.716
1.170,-0.839,-0.089,-19.470,8.484,86.121
1.056,-0.760,-0.165,-25.513,-14.465,91.614
0.875,-0.591,-0.261,-29.053,-25.757,86.792
0.705,-0.408,-0.353,-33.203,-22.339,77.087
0.589,-0.229,-0.396,-40.039,-6.348,66.406
0.507,-0.029,-0.425,-47.729,14.526,56.824
0.423,0.199,-0.438,-55.969,30.945,50.903
0.342,0.473,-0.437,-65.613,39.612,49.316
0.291,0.743,-0.437,-71.716,43.396,52.063
0.297,1.059,-0.404,-70.007,41.992,56.824
0.400,1.333,-0.395,-57.434,36.682,60.486
0.456,1.609,-0.300,-38.330,32.715,61.829
0.266,1.492,0.031,-25.513,23.254,64.087
0.376,1.885,-0.433,-27.466,-7.446,57.373
0.350,1.911,-0.284,-31.677,-3.845,82.275
0.323,1.823,-0.111,-35.339,8.850,115.295
0.485,1.847,-0.140,-52.368,0.854,136.658
0.653,1.832,-0.100,-76.233,-13.855,144.409
0.882,1.716,0.085,-96.619,-24.719,141.296
1.116,1.682,0.242,-101.807,-47.119,126.099
1.240,1.640,0.432,-96.985,-76.050,103.455
1.258,1.609,0.564,-89.722,-107.422,75.073
1.201,1.591,0.657,-77.393,-129.761,44.189
1.158,1.549,0.780,-54.260,-135.071,14.648
1.083,1.520,0.800,-21.729,-132.446,-10.803
0.914,1.451,0.735,12.268,-126.526,-30.640
0.708,1.343,0.539,45.166,-115.173,-43.335
0.516,1.215,0.327,70.007,-94.177,-48.523
0.403,1.083,0.162,82.520,-59.692,-48.767
0.366,1.012,0.048,84.656,-18.433,-47.791
0.377,0.994,0.008,79.224,21.790,-46.143
0.454,0.990,0.095,70.618,53.650,-44.006
0.523,1.062,0.219,65.857,67.322,-42.297
0.553,1.208,0.221,70.618,55.359,-44.067
0.574,1.333,0.228,75.134,39.001,-47.668
0.603,1.400,0.221,84.534,22.034,-51.636
0.574,1.394,0.186,94.849,6.714,-50.537
0.491,1.376,0.106,102.844,-6.165,-46.692
0.406,1.367,-0.018,106.750,-14.465,-41.138
0.385,1.246,-0.163,109.985,-10.803,-33.081
0.390,1.049,-0.133,116.150,11.902,-23.865
0.504,0.790,-0.086,117.004,39.490,-23.010
0.707,0.654,-0.191,110.046,56.335,-29.785
0.734,0.637,0.055,99.792,65.247,-41.077
0.782,0.601,-0.211,81.116,38.269,-46.997
0.864,0.507,-0.245,65.918,23.499,-49.988
0.885,0.429,-0.210,58.777,25.574,-59.143
0.806,0.495,-0.235,44.617,21.973,-67.078
0.759,0.493,-0.177,27.283,13.916,-63.049
0.834,0.303,-0.063,20.996,12.390,-47.180
0.890,0.052,0.001,26.001,13.245,-31.738
0.887,-0.105,-0.019,33.081,13.489,-27.100
0.903,-0.216,-0.102,39.612,17.029,-33.203
0.927,-0.337,-0.213,41.077,27.100,-43.762
0.943,-0.462,-0.300,33.325,40.222,-52.551
0.977,-0.581,-0.329,16.907,51.941,-57.739
0.995,-0.615,-0.307,-2.625,60.547,-59.814
0.999,-0.602,-0.214,-19.165,64.026,-58.777
1.013,-0.603,-0.070,-28.381,58.533,-56.824
0.997,-0.521,-0.009,-31.189,42.175,-55.908
0.968,-0.463,0.025,-29.968,26.245,-50.964
0.960,-0.484,0.017,-23.987,12.390,-39.185
0.969,-0.541,0.014,-17.456,2.075,-25.208
0.987,-0.641,-0.018,-12.756,-1.343,-12.756
0.992,-0.688,-0.067,-11.414,0.244,-6.714
1.019,-0.746,-0.070,-13.306,6.531,-9.094
1.099,-0.744,-0.048,-20.935,11.414,-18.311
1.118,-0.682,-0.052,-31.921,8.667,-29.907
1.097,-0.627,-0.074,-41.748,1.648,-38.879
1.059,-0.529,-0.060,-49.011,-3.357,-46.753
0.989,-0.363,-0.051,-52.307,-6.104,-49.194
0.959,-0.298,0.005,-49.622,-7.874,-40.649
0.992,-0.305,0.052,-41.809,-9.155,-25.635
1.027,-0.302,0.069,-31.921,-11.230,-12.268
1.040,-0.284,0.052,-20.691,-14.282,-5.798
1.050,-0.321,0.030,-9.155,-15.503,-4.517
1.060,-0.388,-0.003,-1.221,-15.198,-5.859
1.071,-0.445,-0.062,0.244,-14.282,-8.667
1.066,-0.431,-0.118,-4.150,-10.376,-14.771
1.098,-0.402,-0.113,-9.888,-5.432,-20.264
1.171,-0.353,-0.015,-16.602,-6.531,-23.071
1.222,-0.281,0.017,-22.095,-19.653,-23.437
1.155,-0.123,0.010,-24.536,-37.659,-22.888
1.115,-0.057,0.098,-22.339,-50.293,-18.677
1.126,-0.064,0.123,-17.334,-57.373,-11.292
1.078,-0.061,0.125,-9.949,-57.434,-4.517
1.040,-0.055,0.104,-1.648,-49.255,-0.610
1.053,-0.077,0.102,6.897,-35.828,2.625
1.082,-0.086,0.095,12.268,-23.743,4.578
1.138,-0.094,0.116,13.245,-15.137,4.089
1.175,-0.088,0.124,11.841,-12.756,0.000
1.137,-0.056,0.067,8.179,-15.686,-5.676
1.116,-0.053,0.083,2.991,-14.587,-10.376
1.105,-0.033,0.106,-3.174,-14.038,-14.343
1.056,0.049,0.116,-8.484,-14.893,-17.456

1.021,-0.118,0.121,0.183,12.573,17.700
0.978,-0.021,-0.050,-4.089,13.428,11.414
0.975,-0.112,0.041,-5.371,16.968,11.719
0.967,-0.165,0.039,-18.066,20.752,17.395
0.968,-0.219,0.081,-19.775,25.330,21.606
1.009,-0.273,0.101,-19.714,27.405,25.940
1.053,-0.286,0.110,-19.287,25.085,28.625
1.091,-0.287,0.160,-16.663,20.508,31.555
1.144,-0.297,0.210,-11.597,12.573,35.278
1.187,-0.314,0.247,-2.930,4.150,36.499
1.222,-0.370,0.270,8.301,-2.136,33.264
1.254,-0.474,0.288,19.104,-4.761,27.466
1.271,-0.579,0.282,26.611,-4.150,19.897
1.298,-0.672,0.270,29.846,0.244,10.986
1.271,-0.761,0.230,30.457,8.179,1.709
1.302,-0.737,0.215,31.128,17.883,-7.568
1.250,-0.765,0.166,33.081,27.771,-13.184
1.217,-0.825,0.231,32.715,36.316,-15.320
1.185,-0.809,0.086,25.696,40.588,-21.545
1.159,-0.773,0.024,21.301,48.523,-20.203
1.116,-0.782,0.002,13.123,56.824,-10.559
1.148,-0.803,0.070,4.761,62.927,2.869
1.252,-0.894,0.194,7.751,60.425,12.085
1.214,-0.879,0.074,18.188,39.978,11.536
1.151,-0.817,-0.016,18.616,23.437,13.428
1.113,-0.825,-0.068,19.714,13.062,23.132
1.099,-0.819,-0.089,22.217,4.578,31.189
1.064,-0.781,-0.167,16.846,-5.249,37.292
1.009,-0.692,-0.246,6.653,-15.015,41.199
0.928,-0.577,-0.275,-3.235,-19.714,41.443
0.847,-0.476,-0.293,-12.146,-21.545,41.504
0.773,-0.407,-0.302,-23.193,-20.935,41.321
0.665,-0.311,-0.321,-36.438,-19.714,40.466
0.546,-0.115,-0.341,-49.011,-16.235,38.269
0.451,0.194,-0.314,-57.007,-6.531,37.292
0.407,0.489,-0.257,-57.678,4.700,39.978
0.399,0.689,-0.267,-51.758,16.052,43.579
0.407,0.787,-0.309,-43.762,27.954,47.852
0.461,0.914,-0.367,-37.781,41.748,49.805
0.373,1.153,-0.303,-36.438,57.678,50.354
0.377,1.201,-0.484,-45.654,58.594,46.143
0.417,1.454,-0.542,-50.781,64.880,42.053
0.341,1.384,-0.263,-48.157,90.393,70.007
0.449,1.477,-0.112,-50.964,89.355,85.999
0.582,1.731,-0.026,-59.082,63.354,98.022
0.726,1.860,0.040,-60.791,35.278,107.300
0.829,1.869,0.120,-54.749,7.141,111.450
0.887,1.815,0.106,-47.302,-21.301,111.755
0.980,1.664,0.260,-47.424,-44.006,106.812
1.086,1.537,0.339,-56.152,-67.200,98.877
1.163,1.492,0.400,-63.660,-81.055,85.327
1.255,1.404,0.461,-61.096,-81.543,64.331
1.372,1.272,0.529,-51.636,-73.364,37.170
1.410,1.219,0.546,-36.438,-65.125,7.141
1.341,1.220,0.487,-19.348,-62.561,-16.174
1.173,1.183,0.417,-3.784,-64.819,-28.748
0.996,1.073,0.344,6.287,-66.528,-34.241
0.838,0.995,0.212,10.315,-63.354,-38.818
0.678,0.914,0.042,12.756,-49.438,-42.725
0.575,0.774,-0.114,13.794,-25.085,-43.457
0.598,0.653,-0.138,6.836,0.793,-41.565
0.657,0.667,-0.068,-5.432,20.630,-42.114
0.705,0.794,0.052,-13.062,29.480,-45.837
0.729,0.911,0.123,-8.911,24.780,-46.265
0.746,1.007,0.216,6.958,14.648,-40.283
0.771,1.080,0.282,27.283,-1.282,-30.090
0.774,1.139,0.285,43.640,-20.264,-18.250
0.750,1.202,0.219,54.688,-35.461,-11.780
0.729,1.292,0.137,61.951,-40.588,-12.268
0.722,1.322,0.054,69.214,-35.156,-16.418
0.750,1.267,0.040,77.148,-22.522,-23.865
0.764,1.191,0.034,82.703,-9.399,-30.640
0.741,1.128,-0.009,84.900,0.183,-35.461
0.694,1.045,-0.039,85.754,9.705,-36.926
0.734,0.855,0.060,84.534,24.109,-38.147
0.740,0.775,0.086,75.195,28.015,-41.687
0.764,0.742,-0.211,58.655,10.254,-40.344
0.786,0.650,-0.198,52.063,17.456,-39.978
0.859,0.593,-0.150,47.424,23.682,-44.067
0.886,0.644,-0.199,34.485,11.841,-49.194
0.877,0.724,-0.194,23.560,-3.784,-49.805
0.907,0.620,-0.145,25.635,-13.672,-41.260
0.922,0.358,-0.124,32.959,-17.822,-28.564
0.909,0.095,-0.122,31.860,-19.165,-27.161
0.885,-0.092,-0.150,26.428,-14.893,-38.086
0.846,-0.205,-0.177,21.057,-4.028,-55.603
0.786,-0.228,-0.164,13.611,11.597,-72.998
0.741,-0.234,-0.148,3.906,27.649,-87.402
0.709,-0.214,-0.147,-3.479,41.565,-98.206
0.675,-0.199,-0.128,-7.080,52.429,-103.943
0.778,-0.333,-0.070,-9.155,59.570,-102.905
0.940,-0.520,-0.012,-12.695,61.157,-93.201
1.026,-0.689,0.038,-16.907,54.382,-78.125
1.041,-0.825,0.113,-20.020,43.884,-60.303
1.026,-0.928,0.157,-22.766,33.569,-47.974
0.965,-0.954,0.180,-23.132,28.931,-44.495
0.849,-0.956,0.194,-22.888,30.029,-43.518
0.803,-0.966,0.193,-24.475,34.241,-40.405
0.794,-0.953,0.154,-31.250,35.950,-36.072
0.782,-0.886,0.097,-37.903,36.072,-32.471
0.791,-0.802,0.053,-40.894,37.537,-28.198
0.840,-0.764,0.015,-40.100,40.710,-19.958
0.920,-0.714,0.016,-33.325,42.480,-12.390
1.032,-0.673,0.060,-21.729,38.452,-7.324
1.122,-0.622,0.060,-6.653,26.001,-4.761
1.178,-0.598,0.065,9.094,6.470,-4.089
1.185,-0.570,0.000,24.841,-14.954,-7.812
1.114,-0.536,-0.085,39.124,-31.067,-14.038
1.000,-0.513,-0.179,49.500,-37.903,-19.531
0.926,-0.489,-0.250,50.354,-37.109,-21.973
0.885,-0.444,-0.261,41.443,-31.189,-20.142
0.849,-0.414,-0.263,29.114,-21.301,-15.625
0.861,-0.389,-0.263,17.578,-9.277,-11.658
0.943,-0.354,-0.179,6.226,2.258,-8.240
1.043,-0.289,-0.115,-1.953,3.357,-4.700
1.108,-0.169,-0.059,-4.517,-7.263,-0.366
1.151,-0.075,-0.017,-1.343,-25.269,4.333
1.162,-0.019,-0.026,6.470,-43.579,7.690
1.134,0.020,-0.035,15.320,-56.396,8.118

1.076,0.009,0.073,-8.850,9.033,14.160
1.005,-0.031,-0.021,-10.559,2.869,9.644
0.985,-0.048,0.089,-9.705,6.653,4.883
0.951,-0.074,0.061,-12.573,13.062,2.686
0.970,-0.114,0.042,-14.954,19.348,5.676
0.992,-0.144,0.070,-15.320,25.146,10.742
1.013,-0.181,0.047,-13.184,27.710,15.442
1.024,-0.196,0.049,-10.742,31.494,18.250
1.058,-0.218,0.095,-8.423,36.438,20.081
1.110,-0.238,0.142,-4.150,40.527,22.034
1.185,-0.273,0.185,3.357,39.063,24.109
1.233,-0.311,0.205,13.489,30.945,25.818
1.244,-0.353,0.217,23.254,19.409,25.330
1.235,-0.396,0.225,31.982,10.071,22.949
1.234,-0.464,0.205,40.100,7.141,17.761
1.242,-0.553,0.162,45.227,8.972,11.047
1.245,-0.625,0.122,46.204,12.390,1.831
1.256,-0.676,0.084,42.480,15.442,-6.897
1.237,-0.707,0.068,36.499,17.578,-12.451
1.214,-0.749,0.130,30.151,18.677,-14.465
1.150,-0.795,0.049,22.278,16.968,-16.357
1.108,-0.760,0.035,17.395,16.113,-18.127
1.078,-0.740,0.023,14.404,18.494,-18.860
1.042,-0.760,0.034,12.024,20.935,-15.930
1.032,-0.778,0.033,10.193,18.433,-8.423
1.030,-0.748,0.010,9.216,7.935,5.188
1.043,-0.760,-0.011,9.888,-2.563,23.621
1.044,-0.777,-0.025,10.254,-14.954,39.124
1.008,-0.737,-0.083,8.118,-28.687,49.438
0.940,-0.673,-0.159,1.892,-39.001,55.969
0.876,-0.599,-0.220,-3.845,-44.495,58.838
0.799,-0.488,-0.268,-10.864,-44.739,56.152
0.729,-0.409,-0.315,-20.752,-38.757,48.401
0.666,-0.323,-0.346,-32.104,-28.931,41.748
0.588,-0.227,-0.345,-44.922,-18.188,38.391
0.529,-0.114,-0.316,-56.824,-7.324,36.133
0.444,0.012,-0.320,-62.927,1.343,35.278
0.335,0.167,-0.388,-63.110,7.996,37.720
0.272,0.432,-0.414,-62.317,15.686,46.021
0.335,0.585,-0.381,-54.871,21.484,59.753
0.428,0.699,-0.383,-46.997,16.541,69.397
0.449,0.860,-0.436,-45.349,2.380,69.763
0.389,1.188,-0.439,-41.382,-8.911,61.768
0.291,1.230,-0.362,-35.950,-13.733,52.795
0.476,1.682,-0.464,-22.400,-7.812,40.588
0.385,1.796,-0.209,-4.883,23.315,63.904
0.337,1.783,0.021,-7.568,26.794,91.125
0.511,1.897,0.055,-39.063,2.869,112.061
0.841,1.963,0.194,-65.125,-13.977,132.080
1.126,1.886,0.463,-60.974,-22.095,147.034
1.353,1.671,0.630,-45.532,-38.391,154.114
1.527,1.439,0.727,-35.278,-67.505,144.653
1.593,1.329,0.772,-36.377,-93.567,120.117
1.595,1.328,0.795,-33.875,-101.746,84.778
1.581,1.351,0.846,-27.649,-89.111,48.462
1.487,1.278,0.838,-13.733,-67.749,14.771
1.285,1.187,0.749,7.996,-50.171,-17.090
1.025,1.092,0.586,33.264,-39.001,-44.617
0.767,0.999,0.388,57.007,-30.945,-62.805
0.561,0.889,0.205,71.655,-19.531,-67.627
0.477,0.745,0.014,77.087,-2.502,-61.707
0.450,0.695,-0.052,74.646,19.714,-51.819
0.462,0.626,-0.111,63.599,36.072,-35.217
0.555,0.594,-0.062,47.852,48.889,-17.456
0.708,0.638,0.062,33.752,59.875,-6.531
0.884,0.769,0.201,24.353,62.561,-4.395
0.986,0.970,0.252,19.409,54.749,-9.766
1.038,1.159,0.310,18.005,44.556,-24.414
1.091,1.293,0.328,24.109,32.043,-44.434
1.124,1.365,0.304,36.316,14.954,-61.707
1.094,1.323,0.249,50.537,-4.517,-70.923
1.021,1.200,0.209,62.439,-22.217,-70.984
0.925,1.073,0.126,67.871,-36.926,-66.650
0.840,0.945,0.037,67.688,-45.227,-60.059
0.779,0.831,-0.029,60.730,-43.823,-52.429
0.743,0.717,-0.056,51.025,-33.325,-45.288
0.702,0.667,-0.046,43.091,-16.357,-43.396
0.706,0.689,-0.001,37.537,1.526,-47.791
0.745,0.731,0.053,35.889,14.954,-55.664
0.807,0.693,0.126,37.048,21.057,-57.922
0.863,0.545,0.173,40.283,20.630,-50.964
0.867,0.322,0.103,49.500,16.968,-42.358
0.791,0.107,-0.003,61.646,20.752,-41.321
0.712,-0.024,-0.086,67.749,34.729,-49.622
0.672,-0.057,-0.151,63.416,55.176,-59.204
0.630,-0.030,-0.170,47.302,74.951,-64.270
0.624,0.027,-0.133,27.527,92.285,-64.880
0.625,0.184,-0.111,12.512,102.722,-62.378
0.629,0.248,-0.074,3.967,103.943,-62.561
0.790,0.231,-0.034,-17.578,94.299,-59.631
0.990,0.178,0.003,-48.584,71.655,-51.636
1.034,-0.038,0.064,-67.688,51.697,-39.429
0.870,-0.362,0.042,-54.810,42.358,-31.311
0.804,-0.581,-0.008,-17.578,45.288,-44.800
0.764,-0.671,-0.105,11.658,54.443,-69.763
0.742,-0.775,-0.095,12.329,67.688,-86.853
0.717,-0.740,-0.143,-4.883,65.613,-87.280
0.718,-0.721,-0.270,-29.785,49.683,-73.853
0.766,-0.644,-0.289,-54.810,39.307,-62.256
0.821,-0.551,-0.178,-71.594,33.630,-55.969
0.797,-0.452,-0.071,-75.439,25.085,-50.354
0.857,-0.476,0.088,-67.322,20.508,-42.603
0.935,-0.579,0.224,-48.584,15.869,-35.095
1.001,-0.679,0.283,-24.536,5.066,-36.133
0.944,-0.719,0.186,-4.639,-7.019,-43.518
0.894,-0.748,0.112,9.705,-9.766,-46.021
0.909,-0.789,0.037,14.832,-11.536,-37.476
0.952,-0.814,-0.017,13.245,-14.343,-26.428
1.001,-0.792,-0.080,6.226,-19.775,-16.846
1.026,-0.730,-0.138,-2.563,-27.649,-9.399
1.007,-0.606,-0.189,-9.033,-33.447,-3.601
1.042,-0.559,-0.132,-15.137,-33.325,4.333
1.110,-0.532,-0.042,-20.874,-30.640,11.108
1.112,-0.448,-0.038,-22.339,-31.921,12.634
1.091,-0.392,-0.068,-17.273,-32.043,12.451
1.106,-0.405,-0.070,-9.705,-25.513,11.536
1.095,-0.355,-0.062,-4.456,-16.174,7.996
1.091,-0.322,-0.078,0.732,-7.324,4.211
1.115,-0.309,-0.121,3.845,1.465,2.197

0.973,-0.108,-0.020,7.629,-11.414,-8.301
0.924,-0.112,-0.088,-0.610,-6.042,-12.268
0.886,-0.071,0.046,-1.526,6.409,-11.047
0.908,-0.074,0.070,-1.953,18.250,-3.784
0.914,-0.074,0.074,-0.061,21.179,8.057
0.957,-0.062,0.096,1.587,21.362,21.362
0.997,-0.125,0.089,5.737,17.639,36.194
1.043,-0.200,0.062,9.155,10.681,45.349
1.055,-0.238,0.033,10.620,3.235,46.387
1.066,-0.282,0.012,9.460,-0.854,42.175
1.094,-0.312,0.004,7.263,-1.221,34.912
1.097,-0.322,-0.007,5.310,-1.099,25.330
1.088,-0.370,-0.023,4.822,-0.305,15.381
1.073,-0.407,-0.029,3.662,2.136,4.639
1.069,-0.448,-0.026,1.648,6.592,-5.066
1.084,-0.443,-0.042,-0.427,11.658,-13.489
1.103,-0.501,-0.044,1.038,16.052,-18.311
1.142,-0.568,-0.064,5.859,17.029,-18.555
1.184,-0.671,-0.066,9.888,12.390,-15.259
1.215,-0.741,0.079,6.226,2.869,-11.902
1.181,-0.761,-0.129,-4.089,-8.362,-10.132
1.116,-0.824,-0.125,-1.099,-13.550,-6.958
1.054,-0.846,-0.169,0.183,-11.902,-2.991
1.002,-0.838,-0.160,-2.319,-5.432,1.709
1.025,-0.788,-0.099,-2.197,4.028,9.277
0.968,-0.870,-0.028,2.625,8.911,17.578
0.968,-0.805,-0.017,3.601,9.766,22.522
1.028,-0.754,-0.034,7.446,10.986,24.780
1.101,-0.798,-0.036,19.409,9.399,25.024
1.154,-0.781,-0.016,26.978,-1.404,23.071
1.149,-0.704,-0.088,24.536,-20.813,20.447
1.084,-0.634,-0.080,14.282,-39.368,21.240
1.030,-0.610,-0.036,4.761,-50.293,23.071
0.933,-0.549,-0.011,-5.981,-57.068,25.330
0.793,-0.502,-0.021,-18.250,-57.861,27.527
0.659,-0.449,-0.057,-30.579,-48.950,28.748
0.549,-0.312,-0.104,-42.847,-32.471,27.954
0.574,-0.227,-0.148,-41.809,-5.188,22.278
0.637,-0.083,-0.198,-28.381,26.489,12.207
0.731,0.118,-0.184,-23.560,41.809,4.028
0.795,0.381,-0.122,-19.592,39.734,0.488
0.842,0.585,0.040,-7.690,21.851,2.502
0.882,0.755,0.073,14.099,-6.287,8.423
0.820,0.848,0.083,18.738,-34.607,20.325
0.683,0.817,0.120,6.775,-61.157,36.194
0.499,0.794,0.203,-17.639,-76.965,46.082
0.235,0.650,0.317,-42.236,-73.242,48.889
0.350,1.173,0.061,-51.880,-45.776,41.565
0.387,1.057,0.192,-23.621,25.452,62.439
0.436,0.873,0.255,-9.888,79.651,82.947
0.632,0.986,0.109,-15.991,95.154,87.280
0.893,1.177,-0.017,-29.541,89.600,95.154
1.130,1.187,0.078,-38.757,82.947,107.239
1.239,1.112,0.166,-44.495,67.200,111.206
1.232,1.059,0.153,-51.880,44.250,102.295
1.218,1.022,0.115,-57.007,23.315,86.670
1.264,1.028,0.159,-59.631,9.277,71.472
1.328,1.030,0.224,-58.044,-1.465,62.317
1.350,1.021,0.296,-51.758,-13.245,56.274
1.325,0.936,0.313,-40.649,-29.358,50.049
1.291,0.860,0.291,-28.198,-45.166,41.443
1.226,0.788,0.246,-15.991,-55.969,31.067
1.178,0.714,0.252,-7.751,-59.570,21.790
1.120,0.679,0.270,-3.784,-58.289,12.024
1.027,0.677,0.234,-0.183,-50.842,2.563
0.961,0.656,0.196,4.822,-35.217,-7.385
0.940,0.645,0.167,10.132,-16.113,-17.395
0.975,0.666,0.187,13.000,-0.183,-25.574
1.011,0.725,0.207,14.893,8.240,-30.884
1.007,0.750,0.182,17.273,8.362,-31.677
0.997,0.746,0.181,20.752,7.568,-26.367
1.019,0.739,0.200,24.353,9.644,-21.301
1.068,0.749,0.226,28.320,12.878,-19.714
1.106,0.805,0.228,31.677,13.428,-19.409
1.133,0.901,0.216,33.752,10.010,-19.531
1.155,0.934,0.140,37.231,4.456,-18.860
1.162,0.918,0.223,39.124,-0.977,-20.508
1.123,1.055,0.168,34.546,-17.151,-30.090
1.067,1.100,0.108,34.668,-27.222,-36.560
1.002,0.950,0.029,40.405,-25.269,-35.828
0.905,0.826,-0.079,41.565,-15.869,-33.447
0.836,0.748,-0.121,31.128,-3.113,-30.945
0.881,0.665,0.010,13.489,12.695,-25.574
0.939,0.549,0.197,4.456,21.851,-24.292
0.890,0.578,0.172,3.784,16.235,-31.616
0.831,0.676,0.065,2.808,9.033,-43.030
0.816,0.764,0.038,3.418,10.559,-51.208
0.858,0.851,0.098,8.789,15.808,-55.786
0.924,0.882,0.152,21.057,17.639,-56.458
0.945,0.779,0.162,38.086,14.099,-49.255
0.933,0.567,0.177,55.908,7.935,-34.424
0.869,0.302,0.111,70.679,-0.366,-23.010
0.778,0.076,-0.049,78.979,-6.287,-20.386
0.683,-0.060,-0.167,73.792,-2.563,-22.949
0.620,-0.154,-0.249,57.922,9.888,-25.696
0.575,-0.166,-0.292,37.292,28.992,-29.236
0.579,-0.089,-0.297,16.296,48.767,-37.415
0.620,-0.008,-0.214,-0.183,64.026,-46.082
0.746,0.013,-0.052,-8.667,67.383,-49.744
0.881,-0.006,0.044,-5.249,51.758,-48.096
0.942,-0.122,0.056,5.432,24.292,-44.312
0.894,-0.253,0.004,17.029,-2.747,-41.382
0.768,-0.333,-0.096,25.757,-20.752,-38.879
0.642,-0.432,-0.220,28.076,-25.818,-36.194
0.622,-0.651,-0.107,22.583,-15.503,-32.776
0.630,-0.758,-0.052,9.521,-3.845,-31.311
0.618,-0.711,-0.059,-8.728,3.235,-33.203
0.625,-0.602,-0.036,-22.949,6.409,-37.231
0.663,-0.501,0.000,-27.832,2.258,-39.124
0.714,-0.431,0.038,-27.588,-6.897,-36.865
0.792,-0.477,0.110,-23.682,-19.653,-29.602
0.860,-0.565,0.132,-14.099,-33.813,-21.484
0.876,-0.626,0.137,-4.211,-43.335,-16.174
0.864,-0.730,0.123,2.319,-43.701,-14.343
0.848,-0.836,0.076,5.066,-36.438,-17.761
0.856,-0.885,0.039,0.183,-24.963,-22.034
0.879,-0.864,0.036,-13.672,-11.292,-23.804
0.935,-0.806,0.042,-30.396,2.808,-24.292
0.993,-0.689,-0.026,-43.884,14.893,-27.649

0.842,-0.016,0.124,-48.401,-9.155,16.541
0.885,-0.119,0.153,-47.974,6.042,28.076
0.961,-0.135,0.187,-37.109,20.203,35.095
1.054,-0.144,0.163,-24.902,28.503,34.424
1.066,-0.152,0.113,-13.672,29.724,32.288
1.093,-0.202,0.081,-5.188,28.503,30.884
1.117,-0.287,0.063,-0.732,24.963,28.870
1.123,-0.360,0.056,2.075,18.372,25.085
1.149,-0.424,0.052,4.333,13.733,19.226
1.172,-0.490,0.046,7.935,11.780,11.047
1.156,-0.546,0.051,11.963,11.780,1.099
1.132,-0.587,0.063,15.686,14.526,-8.362
1.080,-0.683,0.061,20.691,19.775,-15.320
1.048,-0.761,0.052,26.245,27.283,-19.409
1.044,-0.831,0.034,29.236,32.959,-21.118
1.046,-0.885,-0.000,29.297,33.325,-20.386
1.043,-0.938,-0.048,27.832,28.625,-19.653
0.989,-0.988,-0.132,26.062,24.048,-18.555
0.936,-1.006,-0.087,20.691,25.391,-16.785
0.895,-1.038,-0.281,14.038,25.574,-12.329
0.842,-1.059,-0.283,9.888,31.799,-2.014
0.851,-1.069,-0.206,1.526,41.748,10.559
0.932,-1.076,-0.116,-5.371,45.715,23.499
0.990,-0.988,-0.086,-10.010,37.109,34.058
1.053,-0.850,-0.060,-13.062,23.560,43.640
1.133,-0.731,-0.009,-10.925,7.141,52.979
1.176,-0.659,0.002,-4.578,-14.099,60.913
1.152,-0.592,-0.042,0.305,-37.109,64.880
1.087,-0.522,-0.102,-0.916,-57.312,64.270
1.001,-0.500,-0.161,-4.639,-70.557,60.669
0.881,-0.489,-0.195,-10.132,-72.937,53.955
0.757,-0.460,-0.240,-19.226,-63.293,44.373
0.645,-0.367,-0.312,-30.945,-43.396,32.288
0.577,-0.198,-0.347,-41.992,-17.273,20.508
0.558,0.074,-0.334,-47.058,7.812,11.536
0.599,0.359,-0.269,-45.288,22.888,11.475
0.675,0.643,-0.165,-36.560,20.264,23.560
0.731,0.871,-0.020,-23.010,-1.404,44.006
0.684,1.083,0.051,-12.817,-41.687,62.683
0.623,1.212,0.059,-10.498,-85.632,71.228
0.431,0.989,0.182,-15.442,-116.638,71.106
0.493,1.386,-0.130,-29.846,-127.869,62.317
0.405,1.323,-0.018,-36.743,-87.952,84.045
0.344,1.113,0.093,-50.903,-40.100,98.511
0.450,1.177,0.036,-70.190,-5.188,84.656
0.644,1.347,0.026,-81.970,24.292,70.129
0.885,1.437,0.184,-75.012,53.223,69.092
1.056,1.429,0.256,-58.044,67.017,75.439
1.233,1.406,0.437,-42.969,59.631,76.721
1.303,1.250,0.486,-26.062,28.564,75.256
1.319,1.188,0.486,-22.583,-12.573,74.219
1.275,1.101,0.477,-24.597,-49.316,71.777
1.198,0.967,0.451,-26.001,-65.857,64.087
1.142,0.872,0.443,-24.963,-59.326,48.340
1.120,0.811,0.480,-22.705,-41.443,30.518
1.113,0.789,0.503,-17.212,-23.743,12.634
1.102,0.778,0.521,-7.019,-9.705,-3.418
1.058,0.778,0.496,5.920,-3.906,-16.052
1.008,0.757,0.428,20.813,-3.967,-23.682
0.984,0.723,0.346,32.959,-7.141,-27.039
0.953,0.695,0.252,39.551,-9.766,-28.015
0.920,0.707,0.199,42.114,-9.399,-28.015
0.900,0.704,0.108,42.297,-7.080,-27.161
0.915,0.681,0.078,43.640,0.916,-25.330
0.948,0.643,0.118,42.969,11.108,-24.353
0.981,0.649,0.139,37.292,16.174,-24.963
1.017,0.719,0.164,30.334,15.381,-25.146
1.041,0.808,0.197,29.114,12.695,-23.010
1.122,0.721,0.258,34.546,10.742,-20.874
1.106,0.689,0.212,36.621,1.404,-22.644
1.057,0.777,0.103,35.095,-13.123,-27.039
1.029,0.745,0.155,37.659,-15.625,-25.208
1.034,0.680,0.201,39.612,-13.611,-26.611
1.004,0.681,0.175,36.011,-14.099,-30.945
0.965,0.729,0.163,29.236,-15.259,-33.691
0.928,0.763,0.161,22.705,-14.709,-31.799
0.908,0.747,0.174,18.127,-13.733,-27.344
0.923,0.709,0.165,13.916,-14.160,-23.132
0.949,0.660,0.214,10.864,-16.052,-18.555
0.959,0.584,0.262,11.719,-18.250,-13.794
0.923,0.500,0.258,17.883,-20.264,-12.451
0.870,0.469,0.247,27.649,-18.860,-14.465
0.805,0.451,0.213,40.710,-13.489,-17.883
0.741,0.438,0.154,54.932,-4.822,-19.653
0.737,0.402,0.124,66.772,6.104,-21.118
0.782,0.297,0.099,73.181,13.672,-25.085
0.841,0.168,0.080,69.885,14.954,-29.541
0.853,0.059,0.086,60.486,11.963,-32.288
0.830,-0.026,0.081,50.293,5.920,-35.156
0.793,-0.123,0.062,39.673,4.456,-35.461
0.734,-0.214,0.038,32.043,11.597,-34.607
0.678,-0.236,0.021,25.330,28.076,-35.828
0.648,-0.185,-0.013,16.296,51.025,-39.551
0.657,-0.115,-0.009,7.507,75.989,-44.250
0.740,-0.045,0.002,3.479,95.703,-47.913
0.835,0.016,-0.002,7.019,101.746,-49.744
0.993,0.015,0.038,13.428,94.788,-49.500
1.047,0.011,0.061,19.165,79.895,-45.471
1.026,-0.115,0.094,24.658,54.749,-32.654
0.975,-0.240,0.091,28.320,25.024,-17.700
0.905,-0.385,0.011,30.090,6.165,-10.437
0.833,-0.463,-0.100,28.992,-0.488,-10.559
0.789,-0.568,-0.144,25.757,8.484,-16.296
0.759,-0.586,-0.067,20.020,20.020,-26.611
0.771,-0.427,-0.087,8.972,27.039,-37.964
0.760,-0.299,-0.085,-1.587,32.837,-38.025
0.802,-0.278,-0.031,-3.784,35.645,-31.433
0.873,-0.324,0.016,-3.845,30.762,-22.095
0.922,-0.418,0.028,-3.845,22.156,-11.963
0.938,-0.539,0.034,-2.075,15.930,-7.568
0.911,-0.595,0.006,-2.319,11.414,-10.071
0.880,-0.622,-0.019,-2.319,12.634,-15.564
0.857,-0.632,-0.061,-1.404,17.334,-21.362
0.849,-0.606,-0.111,-0.122,26.733,-23.804
0.876,-0.568,-0.153,-2.502,38.940,-23.376
0.926,-0.543,-0.178,-13.733,48.096,-22.827
1.024,-0.476,-0.178,-28.137,53.528,-23.315
1.125,-0.387,-0.057,-38.391,50.659,-24.536
1.182,-0.297,-0.036,-42.603,33.081,-24.780

0.840,0.017,0.014,-7.874,21.606,20.386
0.870,-0.219,0.115,5.737,37.354,28.442
0.865,-0.323,0.050,6.775,51.697,31.250
0.976,-0.345,-0.016,14.404,71.594,23.315
1.097,-0.340,-0.032,17.212,84.778,13.611
1.169,-0.472,-0.134,14.954,78.979,9.216
1.188,-0.528,-0.172,11.963,66.650,9.460
1.173,-0.598,-0.224,6.042,52.002,6.836
1.195,-0.727,-0.225,3.174,42.908,3.967
1.219,-0.713,-0.281,2.563,35.400,-2.991
1.173,-0.720,-0.282,4.028,27.710,-8.301
1.133,-0.741,-0.254,6.775,20.203,-11.353
1.071,-0.770,-0.209,12.756,17.334,-12.329
1.007,-0.785,-0.222,21.790,21.545,-14.038
0.962,-0.816,-0.233,33.203,32.654,-12.817
0.921,-0.893,-0.234,38.696,43.457,-5.676
0.915,-0.952,-0.225,32.166,48.706,3.540
0.895,-0.929,-0.180,18.799,50.354,12.695
0.884,-0.870,-0.142,1.526,48.218,21.790
0.901,-0.780,-0.106,-13.123,42.786,31.372
1.004,-0.726,0.098,-26.611,33.508,40.222
1.030,-0.655,0.111,-34.363,21.606,52.795
1.086,-0.638,0.114,-22.461,-6.775,73.853
1.136,-0.562,0.062,-11.658,-42.053,93.872
1.148,-0.480,0.023,-5.615,-74.463,101.868
1.103,-0.412,-0.023,11.475,-101.013,100.037
1.100,-0.399,-0.169,20.081,-115.540,95.886
1.003,-0.314,-0.235,14.343,-115.173,81.970
0.902,-0.183,-0.198,9.399,-105.103,63.110
0.881,-0.101,-0.152,6.836,-95.947,47.913
0.896,0.018,-0.046,1.160,-88.623,39.124
0.863,0.147,0.061,0.977,-85.571,35.522
0.758,0.247,0.116,4.211,-89.661,37.292
0.639,0.290,0.105,0.610,-94.910,43.945
0.524,0.366,0.058,-12.207,-93.018,53.650
0.433,0.446,-0.018,-28.687,-75.195,61.218
0.405,0.579,-0.129,-45.105,-39.978,62.927
0.442,0.747,-0.185,-62.012,6.104,60.974
0.531,0.808,-0.172,-76.172,51.270,56.580
0.641,0.881,-0.140,-86.792,81.909,50.293
0.735,0.994,-0.082,-90.027,92.529,43.518
0.703,0.949,0.103,-84.595,82.520,44.434
0.919,1.346,-0.065,-72.876,49.133,47.913
0.903,1.363,0.067,-52.551,22.644,76.416
0.729,1.140,0.110,-43.030,-6.836,103.699
0.784,1.077,0.155,-37.048,-39.795,101.074
0.812,1.066,0.169,-25.269,-66.467,86.853
0.757,0.967,0.121,-18.738,-77.759,82.092
0.756,0.966,0.036,-23.499,-71.045,76.416
0.864,0.996,0.148,-35.339,-50.171,65.491
0.937,0.975,0.224,-38.391,-29.114,55.603
1.022,0.953,0.292,-37.354,-20.569,46.631
1.079,0.979,0.363,-30.701,-20.752,36.194
1.099,0.991,0.386,-21.179,-27.100,27.527
1.075,0.977,0.395,-10.010,-32.104,21.240
1.042,0.939,0.395,-0.122,-38.330,18.799
1.044,0.900,0.365,6.958,-42.725,17.639
1.032,0.892,0.315,11.536,-40.649,13.184
0.912,0.875,0.272,16.113,-30.273,5.554
0.915,0.914,0.339,26.978,-13.367,5.066
0.888,0.828,0.249,34.607,-5.676,3.235
0.906,0.735,0.121,37.659,4.456,-5.310
0.896,0.730,0.059,35.522,16.968,-11.902
0.906,0.701,0.113,32.227,30.762,-17.456
0.935,0.713,0.208,25.940,35.522,-24.902
0.965,0.796,0.261,21.057,25.635,-36.499
0.991,0.818,0.288,23.437,9.644,-45.410
0.968,0.838,0.276,35.278,-7.690,-48.218
0.901,0.858,0.190,44.434,-24.719,-50.903
0.834,0.777,0.172,45.593,-34.302,-53.528
0.810,0.743,0.187,43.457,-38.025,-51.819
0.852,0.669,0.193,40.649,-33.752,-47.119
0.831,0.584,0.171,40.955,-20.325,-44.739
0.854,0.557,0.221,43.701,-2.991,-43.091
0.896,0.520,0.204,54.321,7.507,-45.532
1.002,0.519,0.116,61.890,9.338,-45.837
1.027,0.520,0.156,66.162,13.550,-46.570
0.921,0.554,0.234,72.632,15.442,-55.542
0.928,0.546,0.269,79.651,15.137,-61.096
0.973,0.459,0.240,86.365,7.874,-54.871
0.943,0.360,0.248,101.990,-4.639,-36.072
1.006,0.244,0.217,103.027,-10.803,-12.390
1.097,0.220,0.136,98.328,-10.376,17.212
1.094,0.250,0.066,95.886,-2.869,42.053
1.014,0.273,0.004,97.229,8.667,42.725
0.887,0.292,0.000,106.506,20.264,27.283
0.869,0.233,-0.002,105.835,29.541,6.958
0.852,0.296,0.000,96.252,30.151,-3.967
0.794,0.283,0.095,87.097,22.644,-15.991
0.794,0.201,0.155,74.707,13.733,-34.119
0.843,0.152,0.165,56.458,4.944,-46.936
0.819,0.051,0.170,41.504,-2.441,-51.941
0.753,-0.053,0.144,30.334,-8.484,-53.711
0.722,-0.141,0.109,18.494,-12.085,-53.406
0.735,-0.171,0.042,4.333,-10.315,-51.636
0.765,-0.154,0.003,-6.531,-1.099,-47.729
0.798,-0.181,0.001,-9.033,12.512,-42.908
0.737,-0.195,0.025,-7.996,25.330,-41.992
0.697,-0.061,0.055,-10.132,34.058,-53.345
0.818,-0.044,0.086,-13.550,32.104,-68.848
0.926,-0.088,0.151,-16.479,16.968,-71.228
0.985,-0.140,0.192,-19.714,-0.549,-66.528
1.008,-0.171,0.178,-25.635,-9.827,-57.190
0.981,-0.292,0.130,-35.706,-5.432,-46.814
0.868,-0.437,0.064,-44.800,8.728,-41.260
0.775,-0.508,-0.008,-43.152,26.611,-40.405
0.771,-0.519,-0.093,-24.536,40.466,-35.156
0.820,-0.589,-0.183,-11.841,57.129,-24.841
0.927,-0.638,-0.201,-11.230,73.364,-20.142
1.019,-0.528,-0.133,-12.085,75.684,-24.353
1.073,-0.393,-0.058,-12.573,63.599,-29.297
1.124,-0.387,0.048,-11.230,49.438,-29.175
1.085,-0.393,0.072,-5.127,41.626,-26.367
1.068,-0.351,0.063,8.972,41.016,-18.494
1.039,-0.325,0.069,13.916,42.358,-11.963
1.045,-0.389,0.093,5.127,44.617,-5.554
1.031,-0.406,0.056,-7.507,41.626,-0.549
0.991,-0.426,0.000,-16.968,37.720,2.075
0.977,-0.414,-0.021,-15.564,33.386,2.502

0.902,-0.126,0.204,20.935,15.930,16.235
0.924,-0.142,0.159,3.052,10.193,26.062
0.986,-0.116,0.175,11.292,21.790,32.043
1.035,-0.078,0.115,2.441,24.231,32.654
1.152,-0.101,0.075,-4.517,31.006,30.396
1.242,-0.143,0.049,-8.667,36.987,23.010
1.292,-0.212,0.025,-10.376,38.330,11.353
1.325,-0.308,0.064,-8.423,37.476,-0.183
1.305,-0.389,0.059,-5.432,34.119,-9.888
1.284,-0.431,0.090,-1.953,33.264,-19.348
1.251,-0.476,0.049,-0.366,34.912,-26.611
1.229,-0.614,-0.034,0.427,42.725,-31.006
1.239,-0.706,-0.103,-3.174,54.260,-33.997
1.229,-0.788,-0.121,-7.996,62.683,-36.011
1.213,-0.856,-0.126,-10.925,65.552,-38.574
1.174,-0.939,-0.145,-15.015,61.401,-35.767
1.123,-0.985,-0.147,-23.437,53.040,-29.724
1.106,-0.954,0.005,-38.696,47.180,-23.132
1.051,-0.919,-0.079,-51.636,45.532,-16.052
1.066,-0.925,0.063,-44.495,40.466,-3.113
0.998,-0.889,0.080,-37.415,27.039,14.832
1.010,-0.837,0.087,-38.147,12.878,36.377
1.012,-0.749,0.056,-31.860,1.831,49.377
0.996,-0.702,-0.028,-23.376,-3.540,51.147
0.941,-0.655,-0.120,-18.494,-2.686,48.950
0.932,-0.596,-0.135,-12.329,4.028,46.692
0.949,-0.509,-0.115,-9.033,9.705,44.312
0.942,-0.409,-0.099,-13.672,7.996,41.321
0.907,-0.251,-0.062,-20.569,-2.808,37.720
0.802,-0.074,-0.039,-26.001,-18.799,34.180
0.662,0.062,0.003,-28.320,-32.410,34.302
0.532,0.169,0.056,-32.104,-35.950,37.415
0.456,0.256,0.059,-35.522,-23.193,42.725
0.408,0.356,0.016,-37.842,3.601,49.927
0.379,0.539,-0.072,-40.588,40.039,57.495
0.475,0.657,-0.131,-41.626,80.383,64.819
0.609,0.720,-0.191,-42.786,112.305,68.359
0.697,0.835,-0.279,-45.166,126.099,64.209
0.775,0.770,-0.213,-45.654,120.728,56.458
0.973,1.200,-0.393,-39.612,93.628,47.546
0.891,1.091,-0.137,-28.076,64.392,74.646
0.880,1.027,0.179,-23.926,13.184,100.037
0.797,1.108,0.196,-31.250,-44.922,109.375
0.658,1.180,0.114,-34.119,-76.965,112.915
0.609,1.160,0.146,-31.738,-70.129,113.037
0.614,1.210,0.198,-30.945,-40.039,105.835
0.726,1.008,0.084,-29.114,-11.475,94.666
0.835,1.028,0.013,-34.729,13.611,74.524
0.946,0.920,0.036,-42.419,29.785,58.899
1.001,0.964,0.024,-47.974,30.884,45.166
1.067,1.007,0.061,-50.232,25.330,34.729
1.080,0.980,0.081,-41.138,12.024,25.940
1.045,0.996,0.089,-25.513,-5.432,17.883
1.006,0.979,0.096,-12.390,-21.057,13.550
0.972,0.906,0.062,-2.197,-29.541,12.756
0.966,0.851,0.042,4.639,-30.762,8.850
0.960,0.811,0.049,9.766,-23.499,1.709
0.938,0.806,0.047,13.245,-15.320,-7.751
0.926,0.824,0.038,11.963,-7.385,-16.052
0.914,0.853,0.044,10.010,0.305,-22.522
0.928,0.864,0.025,9.949,7.690,-26.062
0.984,0.850,0.054,11.292,16.907,-28.503
1.022,0.865,0.105,15.808,23.560,-32.104
1.037,0.894,0.119,24.719,20.630,-35.034
1.040,0.923,0.135,37.292,8.667,-34.607
1.023,0.962,0.130,51.941,-6.958,-33.325
0.969,1.010,0.054,62.988,-18.127,-32.898
0.951,1.030,0.049,70.129,-17.639,-34.058
0.970,0.935,0.135,70.618,-13.245,-36.133
0.922,0.908,0.015,66.772,-21.851,-41.931
0.889,0.823,-0.046,63.354,-18.372,-45.959
0.880,0.723,-0.022,59.937,-8.667,-47.974
0.883,0.695,0.011,54.504,-3.723,-51.331
0.879,0.687,0.014,45.837,-4.944,-54.199
0.842,0.695,0.000,37.231,-9.338,-54.565
0.817,0.684,-0.023,31.616,-16.052,-50.598
0.830,0.660,-0.041,27.161,-23.437,-45.654
0.879,0.640,0.016,26.733,-31.738,-42.542
0.921,0.632,0.151,35.645,-46.143,-38.696
0.960,0.551,0.242,52.856,-72.144,-33.142
0.903,0.465,0.198,70.923,-104.614,-26.855
0.769,0.309,0.097,84.167,-126.648,-19.470
0.657,0.092,0.013,90.332,-125.916,-13.245
0.519,-0.090,-0.031,83.435,-100.403,-10.864
0.475,-0.192,-0.026,69.153,-58.167,-13.794
0.520,-0.184,-0.044,50.964,-10.803,-19.836
0.618,-0.092,-0.063,30.579,31.799,-25.085
0.731,-0.001,-0.052,16.113,56.641,-27.649
0.845,0.037,0.016,10.132,60.181,-24.963
0.937,-0.025,0.095,10.437,46.570,-16.052
0.949,-0.179,0.175,17.456,22.461,-10.803
0.894,-0.206,0.146,29.724,0.366,-18.372
0.819,-0.260,0.087,40.833,-8.240,-23.682
0.749,-0.374,0.013,44.983,-8.545,-19.592
0.777,-0.430,-0.108,43.823,3.967,-17.578
0.839,-0.447,-0.203,34.119,25.574,-18.005
0.908,-0.459,-0.222,19.348,43.457,-19.348
1.007,-0.418,-0.191,3.601,53.650,-21.545
1.077,-0.380,-0.138,-11.292,55.908,-23.682
1.099,-0.370,-0.070,-18.066,52.734,-26.062
1.095,-0.380,-0.011,-17.151,46.326,-28.442
1.054,-0.397,0.022,-14.771,35.950,-29.358
1.011,-0.410,0.006,-9.155,27.649,-28.748
0.973,-0.418,-0.039,-4.150,25.574,-25.696
0.954,-0.422,-0.077,-2.075,27.588,-20.752
0.979,-0.411,-0.110,-1.709,32.104,-13.306
1.037,-0.422,-0.152,-4.517,33.508,-5.066
1.111,-0.403,-0.167,-10.376,33.875,-0.916
1.147,-0.349,-0.145,-15.137,34.241,-2.991
1.221,-0.321,-0.149,-16.357,33.569,-8.240
1.287,-0.315,-0.138,-19.836,30.334,-16.663
1.262,-0.258,-0.109,-22.705,21.912,-25.330
1.192,-0.207,-0.078,-22.644,7.751,-28.809
1.157,-0.215,-0.067,-17.578,-4.639,-24.658
1.098,-0.239,-0.048,-11.353,-12.878,-18.494
1.031,-0.226,-0.035,-5.737,-16.174,-13.733
0.994,-0.217,-0.042,-1.587,-14.038,-7.141
0.995,-0.205,-0.048,0.793,-8.606,1.282
0.996,-0.182,-0.056,2.441,-0.610,7.751

0.944,-0.024,0.053,1.343,52.124,-0.488
1.060,-0.064,0.216,28.015,71.289,-1.587
1.009,-0.161,0.178,22.827,69.824,0.916
1.016,-0.268,0.045,30.212,74.524,4.150
1.062,-0.339,-0.026,28.992,78.613,12.451
1.117,-0.390,-0.116,24.414,71.777,24.048
1.144,-0.427,-0.222,12.573,55.481,32.898
1.216,-0.497,-0.242,2.014,41.687,37.231
1.286,-0.518,-0.210,-7.446,30.212,32.837
1.317,-0.487,-0.215,-13.733,21.423,20.264
1.289,-0.512,-0.234,-15.625,15.930,7.263
1.266,-0.589,-0.209,-13.855,15.869,-3.357
1.252,-0.617,-0.212,-9.888,19.165,-13.855
1.211,-0.630,-0.255,-5.432,21.729,-20.996
1.172,-0.649,-0.298,-3.113,22.644,-24.353
1.126,-0.684,-0.345,-3.113,23.315,-23.132
1.072,-0.713,-0.390,-6.348,26.794,-20.203
1.083,-0.786,-0.365,-15.320,36.499,-17.578
1.068,-0.848,-0.352,-28.015,47.180,-15.015
1.066,-0.888,-0.321,-41.260,54.321,-12.512
1.091,-0.905,-0.141,-55.664,55.725,-11.108
1.086,-0.802,-0.204,-53.284,36.194,-7.324
1.001,-0.727,-0.211,-37.048,3.479,6.165
0.943,-0.677,-0.267,-33.203,-20.569,28.320
0.857,-0.667,-0.246,-27.039,-38.879,49.805
0.796,-0.632,-0.226,-21.973,-54.504,65.491
0.739,-0.557,-0.236,-25.513,-64.941,76.599
0.664,-0.475,-0.254,-34.119,-70.313,81.726
0.574,-0.373,-0.246,-48.279,-68.604,80.933
0.497,-0.214,-0.239,-65.796,-55.664,76.355
0.449,-0.064,-0.227,-80.872,-31.860,70.251
0.413,0.064,-0.204,-92.957,-1.709,63.904
0.397,0.200,-0.209,-99.976,28.687,59.998
0.414,0.295,-0.201,-100.342,53.345,61.829
0.416,0.425,-0.196,-95.764,66.345,68.909
0.462,0.734,-0.217,-86.365,66.406,76.660
0.564,1.081,-0.215,-68.787,61.401,77.209
0.512,1.194,-0.002,-46.814,56.946,67.627
0.645,1.683,-0.303,-29.480,46.570,46.265
0.661,1.734,-0.313,-15.564,55.969,52.368
0.690,1.450,-0.064,-18.127,82.458,80.200
0.991,1.542,0.180,-37.781,73.792,93.323
0.993,1.404,-0.095,-64.209,35.034,108.643
1.091,1.497,-0.051,-86.914,20.325,122.742
1.172,1.420,0.156,-76.111,7.812,128.235
1.249,1.462,0.281,-66.528,-17.761,119.385
1.247,1.362,0.374,-47.424,-52.551,103.088
1.143,1.219,0.424,-30.396,-88.013,82.703
1.033,1.113,0.412,-22.949,-109.375,61.340
0.922,1.050,0.374,-13.367,-106.995,43.030
0.828,0.972,0.313,0.000,-83.313,27.466
0.758,0.882,0.244,17.395,-51.208,12.146
0.718,0.801,0.138,32.166,-22.949,-0.427
0.707,0.739,0.010,39.368,-3.357,-7.996
0.699,0.706,-0.067,42.542,10.254,-13.245
0.674,0.725,-0.117,41.748,19.104,-15.198
0.671,0.764,-0.174,38.147,22.827,-12.817
0.714,0.741,-0.166,36.621,31.128,-8.240
0.801,0.723,-0.119,36.072,39.612,-5.676
0.841,0.771,-0.103,36.499,45.471,-7.080
0.878,0.865,-0.080,38.879,48.279,-10.376
0.909,0.923,-0.055,45.410,48.279,-12.512
0.947,0.937,-0.056,54.260,46.875,-12.695
0.962,0.897,-0.199,62.561,44.617,-13.489
1.030,0.921,0.012,66.589,44.739,-16.724
1.003,0.913,-0.073,65.430,26.733,-22.949
0.946,0.883,-0.227,64.819,10.132,-29.053
0.924,0.780,-0.286,69.397,9.155,-31.738
0.933,0.718,-0.240,70.557,17.151,-37.354
0.948,0.749,-0.177,71.594,20.569,-45.288
0.951,0.794,-0.146,70.190,20.203,-49.133
0.939,0.820,-0.116,67.627,18.982,-49.866
0.931,0.829,-0.104,67.688,15.869,-50.354
0.928,0.813,-0.098,67.627,12.939,-50.171
0.941,0.806,-0.100,65.552,5.920,-49.805
1.007,0.711,-0.113,59.998,-5.310,-48.645
1.073,0.519,-0.144,52.856,-20.325,-46.509
1.042,0.387,-0.160,45.105,-37.537,-44.678
0.989,0.247,-0.207,36.072,-53.711,-45.898
0.918,0.107,-0.243,26.001,-62.073,-49.133
0.830,0.005,-0.238,19.104,-57.617,-53.772
0.770,-0.002,-0.172,12.451,-42.908,-58.044
0.731,0.055,-0.103,2.930,-26.062,-58.838
0.746,0.118,-0.026,-2.319,-13.184,-56.152
0.793,0.193,0.035,-2.319,-8.911,-50.720
0.863,0.273,0.101,1.587,-12.024,-43.762
0.961,0.282,0.160,11.963,-26.428,-36.072
1.016,0.200,0.178,25.452,-50.293,-26.917
1.003,0.094,0.114,37.781,-74.463,-20.935
0.958,-0.014,0.011,46.387,-86.609,-20.935
0.909,-0.128,-0.077,50.232,-80.933,-24.536
0.863,-0.201,-0.140,46.143,-62.073,-29.602
0.856,-0.233,-0.182,33.447,-36.804,-34.607
0.877,-0.206,-0.191,16.418,-11.658,-41.016
0.895,-0.101,-0.167,1.465,7.568,-46.509
0.908,-0.001,-0.106,-11.292,18.799,-46.692
1.016,-0.031,-0.008,-19.592,21.057,-43.335
1.064,-0.038,0.006,-19.348,13.428,-42.114
1.078,-0.036,0.019,-10.498,0.244,-41.809
1.069,-0.118,-0.004,0.488,-16.724,-39.673
1.044,-0.188,-0.036,9.521,-30.090,-38.696
1.001,-0.231,-0.072,14.771,-36.011,-39.124
0.974,-0.296,-0.076,16.418,-33.875,-39.612
0.934,-0.346,-0.101,14.221,-29.724,-41.626
0.909,-0.383,-0.127,8.240,-22.766,-43.579
0.891,-0.389,-0.131,-1.770,-16.785,-44.250
0.878,-0.360,-0.103,-14.709,-9.888,-44.189
0.864,-0.298,-0.070,-27.283,-3.784,-43.945
0.882,-0.264,-0.020,-35.400,4.944,-44.739
0.921,-0.256,0.029,-37.781,18.127,-47.729
0.963,-0.253,0.073,-37.598,29.724,-52.856
1.011,-0.257,0.106,-33.936,36.499,-57.373
1.045,-0.306,0.130,-24.658,35.034,-56.702
1.042,-0.342,0.114,-12.024,22.949,-52.368
0.998,-0.373,0.050,-1.587,9.216,-47.180
0.939,-0.411,-0.015,6.897,0.366,-40.161
0.901,-0.438,-0.060,9.644,-3.723,-28.931
0.878,-0.409,-0.064,4.211,-5.615,-15.625
0.874,-0.352,-0.034,-5.310,-4.395,-3.113

0.890,-0.078,0.215,0.061,36.072,7.263
0.835,-0.067,0.084,5.249,55.237,16.602
0.885,-0.059,0.190,4.578,61.340,24.780
0.973,-0.070,0.163,10.010,65.674,35.217
1.025,-0.102,0.090,18.433,61.829,45.959
1.189,-0.200,0.044,25.513,52.490,53.406
1.266,-0.303,-0.099,26.733,32.593,54.688
1.297,-0.379,-0.207,23.682,10.742,45.776
1.289,-0.457,-0.225,18.616,-2.075,31.433
1.293,-0.542,-0.166,11.841,-6.348,17.761
1.256,-0.533,-0.144,2.991,-8.850,5.676
1.195,-0.524,-0.142,-3.540,-10.681,-3.296
1.132,-0.589,-0.111,-4.333,-6.775,-9.705
1.108,-0.623,-0.109,0.244,1.953,-15.198
1.098,-0.676,-0.194,9.644,10.620,-18.982
1.093,-0.757,-0.303,22.339,17.212,-21.423
1.066,-0.883,-0.411,30.090,21.912,-22.583
1.026,-0.957,-0.472,27.527,25.757,-21.301
1.027,-0.997,-0.334,11.108,30.090,-18.311
0.929,-0.952,-0.464,-15.198,32.532,-11.780
0.876,-0.875,-0.361,-27.222,33.997,-1.831
0.854,-0.818,-0.268,-36.560,35.645,13.855
0.890,-0.793,-0.188,-40.955,31.799,30.945
0.910,-0.713,-0.165,-40.283,21.545,44.434
0.929,-0.618,-0.177,-39.429,10.010,56.519
0.971,-0.538,-0.155,-38.147,-1.404,67.749
1.006,-0.451,-0.146,-34.485,-17.639,72.754
0.984,-0.360,-0.187,-30.640,-36.438,70.129
0.899,-0.265,-0.205,-26.062,-48.340,61.218
0.819,-0.200,-0.224,-18.860,-54.382,50.720
0.763,-0.113,-0.222,-17.029,-55.908,41.382
0.743,-0.091,-0.171,-19.653,-53.467,36.255
0.700,-0.065,-0.102,-24.353,-50.110,34.546
0.595,-0.029,-0.079,-32.654,-49.072,36.804
0.479,0.016,-0.060,-45.715,-47.913,42.786
0.347,0.133,-0.029,-61.768,-42.114,50.720
0.231,0.328,-0.022,-74.951,-31.128,57.495
0.195,0.593,-0.010,-83.984,-16.235,66.101
0.222,0.869,-0.013,-93.445,3.479,77.271
0.223,0.980,0.148,-99.365,27.100,88.806
0.480,1.557,-0.217,-98.328,40.222,91.858
0.616,1.735,-0.198,-90.149,69.458,114.014
0.822,1.624,0.085,-84.534,104.919,138.977
1.179,1.719,0.169,-86.609,98.816,137.939
1.428,1.878,0.085,-92.773,69.946,130.981
1.574,1.747,0.065,-82.153,40.466,127.686
1.641,1.616,0.104,-64.636,10.315,115.479
1.600,1.374,0.211,-53.467,-16.785,91.919
1.480,1.193,0.312,-42.419,-49.011,61.707
1.269,1.053,0.357,-38.330,-70.190,30.884
1.041,0.953,0.456,-27.344,-78.186,4.333
0.835,0.869,0.477,-13.794,-74.890,-12.390
0.651,0.772,0.399,2.197,-63.171,-19.836
0.533,0.647,0.295,21.545,-47.424,-17.517
0.490,0.589,0.172,35.461,-30.945,-10.193
0.503,0.568,0.036,41.260,-11.902,-3.723
0.569,0.561,-0.082,42.236,8.545,0.732
0.679,0.591,-0.125,42.847,27.954,1.282
0.777,0.649,-0.143,40.833,38.452,-0.061
0.877,0.708,-0.192,32.898,40.161,-2.014
0.953,0.759,-0.183,26.978,38.513,-5.859
1.007,0.814,-0.148,25.879,33.020,-13.367
1.029,0.854,-0.159,28.748,24.048,-18.311
1.015,0.844,-0.155,32.288,13.428,-18.188
1.024,0.765,-0.204,36.621,4.211,-14.587
1.052,0.732,0.025,39.063,-0.671,-12.390
1.044,0.817,0.026,39.246,-16.174,-14.160
1.012,0.857,0.030,39.307,-26.184,-13.123
0.999,0.821,0.076,40.771,-27.710,-11.719
0.984,0.842,0.087,35.400,-28.870,-13.245
0.978,0.864,0.065,26.978,-32.898,-16.113
0.993,0.864,0.038,24.963,-32.898,-19.104
0.986,0.833,-0.001,28.625,-30.640,-22.888
0.963,0.803,-0.008,33.875,-25.391,-26.489
0.953,0.765,0.002,37.476,-20.203,-28.625
0.938,0.747,0.037,36.682,-16.113,-30.396
0.911,0.767,0.052,31.067,-13.245,-33.081
0.868,0.792,0.048,25.391,-10.986,-36.316
0.828,0.808,0.030,21.729,-7.385,-40.283
0.888,0.793,0.042,20.447,-1.709,-42.847
1.022,0.679,0.084,26.489,1.160,-43.457
1.063,0.515,0.111,37.842,-3.662,-43.152
1.191,0.386,0.119,51.758,-18.860,-45.837
0.936,0.239,0.045,60.303,-44.006,-53.406
0.765,0.274,-0.070,51.453,-61.890,-55.908
0.713,0.238,-0.034,47.424,-59.265,-44.067
0.678,0.124,-0.013,44.495,-47.241,-29.297
0.674,0.068,-0.042,33.630,-33.691,-25.452
0.693,0.108,-0.062,25.513,-17.456,-32.349
0.772,0.170,-0.052,21.606,1.404,-39.551
0.891,0.160,0.020,21.118,14.587,-40.955
0.955,0.097,0.094,24.048,16.602,-36.560
0.971,0.004,0.135,28.198,11.963,-33.691
0.962,-0.081,0.097,34.851,7.690,-37.170
0.894,-0.184,-0.019,37.170,9.338,-43.762
0.857,-0.187,-0.043,31.982,22.583,-52.429
0.847,-0.214,-0.088,20.996,33.752,-54.993
0.814,-0.196,-0.169,5.249,40.955,-56.152
0.840,-0.125,-0.158,-11.230,50.781,-59.204
0.912,-0.054,-0.060,-22.461,55.786,-59.875
0.994,-0.024,0.041,-23.376,49.927,-55.847
1.080,-0.037,0.146,-17.334,32.837,-49.805
1.082,-0.100,0.187,-7.812,9.521,-46.570
1.017,-0.167,0.190,0.305,-6.531,-46.814
0.954,-0.259,0.195,9.155,-10.376,-48.889
0.890,-0.345,0.145,15.686,-4.456,-53.406
0.852,-0.391,0.088,15.930,8.789,-59.082
0.821,-0.391,0.030,8.423,22.461,-64.575
0.797,-0.331,-0.017,-4.456,31.433,-68.420
0.810,-0.261,-0.040,-18.372,37.048,-66.772
0.904,-0.250,0.030,-27.710,36.743,-58.777
0.989,-0.288,0.137,-30.945,29.358,-48.279
1.006,-0.325,0.205,-26.733,17.456,-40.161
0.985,-0.379,0.228,-16.113,6.226,-35.828
0.936,-0.449,0.206,-4.944,-0.488,-34.119
0.893,-0.508,0.170,3.723,-0.122,-31.860
0.847,-0.567,0.109,10.010,4.395,-27.283
0.816,-0.633,0.002,12.512,10.864,-22.095
0.806,-0.683,-0.107,14.404,19.592,-16.663

0.946,-0.198,-0.042,1.953,6.287,20.508
0.944,-0.264,-0.004,2.808,12.329,23.743
0.924,-0.273,0.111,2.869,21.484,31.067
0.949,-0.361,0.121,0.916,24.353,38.757
1.002,-0.379,0.109,0.793,25.940,44.922
1.077,-0.424,0.068,1.831,25.574,49.133
1.147,-0.441,0.042,3.662,22.644,49.988
1.183,-0.464,0.032,6.836,17.090,46.387
1.225,-0.495,0.057,13.184,15.503,39.490
1.227,-0.499,0.098,23.010,18.005,28.015
1.201,-0.543,0.020,33.997,22.034,13.306
1.225,-0.622,-0.037,40.588,28.015,2.502
1.208,-0.630,-0.106,40.344,31.250,-1.831
1.201,-0.638,-0.125,33.752,34.912,-3.418
1.192,-0.584,-0.135,26.489,44.922,-10.864
1.188,-0.567,-0.128,19.470,60.303,-20.325
1.176,-0.594,-0.160,12.878,75.806,-30.396
1.150,-0.632,-0.196,3.784,86.426,-38.818
1.097,-0.643,-0.197,-7.385,93.994,-41.931
1.059,-0.703,-0.367,-20.020,95.276,-40.222
1.001,-0.603,-0.166,-32.349,91.919,-35.339
0.995,-0.610,-0.141,-32.471,81.787,-26.550
0.956,-0.561,-0.129,-20.508,59.937,-14.221
0.918,-0.476,-0.225,-10.620,30.029,-0.366
0.870,-0.424,-0.274,-3.723,2.075,16.174
0.843,-0.393,-0.302,2.502,-21.667,33.630
0.754,-0.316,-0.328,6.775,-39.368,49.255
0.738,-0.298,-0.321,10.254,-48.523,60.242
0.705,-0.286,-0.332,8.606,-51.941,65.308
0.648,-0.231,-0.360,-2.502,-51.208,64.758
0.593,-0.148,-0.385,-16.785,-43.945,60.791
0.566,-0.082,-0.388,-28.870,-28.687,55.481
0.545,-0.012,-0.372,-37.781,-10.986,50.232
0.509,0.125,-0.334,-44.739,2.136,45.898
0.510,0.290,-0.242,-49.377,7.080,47.791
0.519,0.453,-0.162,-49.805,-0.977,56.885
0.521,0.601,-0.090,-45.837,-19.897,70.251
0.539,0.702,-0.044,-37.292,-45.776,83.679
0.470,0.600,0.118,-33.142,-71.899,95.276
0.482,0.969,-0.220,-37.354,-101.257,96.863
0.396,1.080,-0.235,-39.124,-95.520,115.662
0.316,0.891,-0.057,-40.710,-56.885,137.329
0.341,0.946,-0.032,-54.138,-32.715,136.597
0.429,1.174,-0.102,-81.787,-17.334,130.615
0.571,1.383,-0.022,-100.464,3.601,130.432
0.799,1.489,0.143,-103.455,18.677,132.263
1.063,1.514,0.292,-96.924,14.221,130.981
1.327,1.525,0.460,-85.449,-4.028,123.779
1.462,1.481,0.472,-74.280,-27.344,109.619
1.488,1.495,0.519,-71.228,-37.964,86.243
1.516,1.430,0.630,-52.002,-42.664,59.265
1.519,1.334,0.665,-30.518,-42.847,34.119
1.424,1.231,0.622,-9.644,-45.776,11.169
1.278,1.117,0.530,11.353,-49.011,-9.644
1.142,1.025,0.415,34.363,-48.279,-29.602
0.984,0.951,0.294,54.260,-44.678,-44.861
0.840,0.895,0.190,64.209,-38.574,-50.049
0.778,0.835,0.113,65.796,-28.442,-47.668
0.797,0.784,0.078,63.538,-15.198,-43.701
0.806,0.810,0.058,58.838,-4.883,-42.358
0.790,0.832,0.005,48.889,0.671,-39.978
0.832,0.876,-0.006,42.236,6.226,-37.476
0.888,0.935,0.053,35.400,12.512,-36.255
0.899,1.066,0.059,29.297,10.742,-38.147
0.953,1.035,0.106,35.522,4.639,-38.696
1.010,0.921,0.125,47.424,-2.808,-37.415
1.005,0.844,0.058,55.176,-14.160,-38.635
0.961,0.779,-0.037,56.519,-25.635,-40.161
0.900,0.703,-0.112,52.429,-29.907,-38.635
0.859,0.646,-0.144,44.128,-26.917,-35.767
0.835,0.640,-0.129,31.616,-18.799,-34.119
0.824,0.683,-0.066,16.907,-9.888,-36.438
0.844,0.740,0.034,7.202,-4.700,-43.823
0.866,0.786,0.082,4.944,-5.493,-51.697
0.913,0.746,0.146,6.042,-11.597,-54.565
0.969,0.604,0.199,13.000,-22.095,-50.476
0.960,0.472,0.206,23.010,-33.936,-43.457
0.928,0.388,0.189,30.518,-43.640,-38.513
0.895,0.314,0.149,35.583,-46.875,-35.461
0.832,0.243,0.107,37.109,-40.955,-34.180
0.756,0.210,0.074,32.959,-26.672,-37.292
0.695,0.233,0.062,24.902,-6.531,-44.617
0.682,0.269,0.077,17.334,13.306,-53.833
0.685,0.329,0.115,12.268,25.574,-60.608
0.705,0.375,0.157,12.512,26.733,-63.721
0.820,0.261,0.217,23.499,23.132,-64.880
0.875,0.068,0.258,42.114,18.860,-65.735
0.814,-0.061,0.203,55.847,16.418,-62.988
0.754,-0.190,0.111,63.232,20.020,-57.373
0.744,-0.319,0.023,66.467,31.311,-51.941
0.751,-0.440,-0.028,60.791,45.410,-49.805
0.761,-0.412,-0.108,46.143,58.594,-53.284
0.794,-0.343,-0.092,26.917,68.909,-57.800
0.856,-0.237,-0.041,10.803,69.153,-61.584
0.876,-0.129,-0.000,2.625,56.519,-62.012
0.890,-0.161,0.062,5.066,39.856,-57.007
0.870,-0.244,0.055,12.024,23.132,-50.781
0.868,-0.338,0.075,18.127,14.465,-45.654
0.866,-0.421,0.021,22.888,12.390,-40.222
0.860,-0.508,-0.019,23.437,14.893,-34.790
0.857,-0.563,-0.062,19.531,21.545,-31.799
0.828,-0.538,-0.144,9.155,28.198,-31.616
0.866,-0.521,-0.128,-2.136,38.025,-30.151
0.961,-0.480,-0.062,-11.658,42.908,-27.039
1.001,-0.431,-0.028,-18.982,35.706,-22.766
1.021,-0.412,0.004,-21.301,24.353,-17.700
1.050,-0.429,0.031,-17.822,13.794,-13.184
1.042,-0.450,0.005,-8.972,6.470,-10.986
1.032,-0.476,-0.032,0.366,4.700,-11.841
1.009,-0.476,-0.071,6.714,7.141,-13.489
1.022,-0.497,-0.081,9.583,10.315,-13.306
1.020,-0.488,-0.103,9.338,11.963,-12.878
1.012,-0.468,-0.117,5.981,11.597,-12.817
1.010,-0.442,-0.121,0.793,11.047,-12.268
1.025,-0.413,-0.119,-4.272,13.123,-12.146
1.076,-0.371,-0.095,-8.362,15.625,-12.695
1.130,-0.335,-0.069,-10.925,14.038,-13.672
1.166,-0.310,-0.034,-11.658,6.897,-13.672
1.165,-0.280,-0.019,-9.644,-4.761,-13.916

0.896,-0.165,-0.075,20.508,23.804,24.414
0.973,-0.260,-0.104,6.470,35.278,31.067
1.035,-0.280,-0.098,1.404,46.204,32.104
1.071,-0.292,-0.090,-0.244,54.321,29.358
1.109,-0.311,-0.060,-4.272,53.650,29.602
1.131,-0.346,-0.100,-5.493,45.837,32.227
1.155,-0.374,-0.121,-3.479,36.926,32.959
1.165,-0.409,-0.110,-0.488,29.358,33.325
1.181,-0.496,-0.156,4.639,23.193,32.471
1.200,-0.569,-0.204,5.676,13.977,30.396
1.214,-0.599,-0.234,2.319,7.385,25.269
1.222,-0.591,-0.228,-2.686,3.967,17.334
1.222,-0.558,-0.188,-6.042,4.211,8.240
1.209,-0.590,-0.170,-6.348,7.385,0.610
1.217,-0.586,-0.158,-4.944,11.536,-6.775
1.219,-0.566,-0.154,-4.578,12.085,-12.268
1.210,-0.555,-0.149,-5.066,8.545,-13.184
1.212,-0.579,-0.157,-5.432,2.747,-11.597
1.167,-0.660,-0.274,-7.324,-2.930,-7.935
1.121,-0.624,-0.194,-17.334,-7.812,-2.441
1.074,-0.662,-0.213,-20.386,-10.376,3.723
1.027,-0.695,-0.190,-23.437,-8.423,11.597
0.992,-0.687,-0.185,-30.090,-6.897,18.005
0.948,-0.640,-0.190,-34.485,-7.324,22.888
0.938,-0.579,-0.161,-35.706,-8.057,27.588
0.922,-0.493,-0.172,-34.607,-12.329,32.654
0.889,-0.409,-0.208,-31.494,-18.127,36.987
0.861,-0.361,-0.224,-28.870,-21.484,39.795
0.817,-0.312,-0.244,-29.236,-24.109,40.283
0.760,-0.267,-0.250,-32.837,-27.710,38.879
0.684,-0.211,-0.253,-40.527,-30.640,38.147
0.592,-0.105,-0.252,-50.110,-30.579,38.513
0.520,-0.003,-0.235,-59.631,-26.245,39.917
0.454,0.085,-0.209,-70.862,-20.386,44.983
0.373,0.183,-0.207,-83.557,-14.282,53.162
0.336,0.277,-0.216,-94.604,-5.676,62.378
0.348,0.375,-0.225,-101.929,5.127,72.693
0.352,0.499,-0.234,-107.910,14.954,83.679
0.360,0.657,-0.265,-112.732,21.362,92.896
0.371,0.856,-0.363,-113.098,26.123,98.999
0.370,0.981,-0.328,-110.474,29.358,99.976
0.518,1.284,-0.327,-98.633,34.973,103.516
0.518,1.182,-0.025,-78.735,50.537,129.150
0.608,1.227,0.159,-66.406,31.311,141.174
0.716,1.398,0.173,-64.209,-5.188,138.794
0.799,1.417,0.181,-67.566,-21.606,113.098
0.761,1.436,0.081,-58.594,-1.770,116.150
0.862,1.445,0.140,-49.072,1.587,154.480
1.052,1.455,0.215,-34.241,-11.963,161.743
1.221,1.386,0.134,-24.170,-15.198,138.672
1.345,1.350,0.074,-12.756,-8.789,111.633
1.452,1.320,0.120,-1.465,-8.667,82.214
1.504,1.234,0.172,7.629,-18.005,52.307
1.464,1.129,0.213,11.108,-32.959,23.315
1.334,1.070,0.244,17.273,-47.302,-2.686
1.178,1.013,0.292,24.048,-56.396,-25.330
1.015,0.969,0.326,30.701,-57.495,-44.983
0.870,0.910,0.301,34.973,-52.795,-58.044
0.784,0.813,0.274,37.720,-43.457,-63.354
0.773,0.726,0.246,39.795,-31.311,-62.317
0.808,0.702,0.254,41.321,-19.165,-60.059
0.790,0.765,0.259,44.739,-12.207,-59.265
0.819,0.798,0.179,48.096,-11.475,-56.946
0.889,0.784,0.166,52.917,-8.118,-55.176
0.859,0.784,0.159,56.763,-7.629,-54.382
0.870,0.693,0.091,66.650,-0.854,-44.861
0.884,0.718,0.150,64.758,-6.409,-34.851
0.936,0.735,0.114,56.519,-20.508,-41.016
0.883,0.759,0.026,46.082,-23.193,-48.157
0.822,0.747,0.011,43.335,-15.381,-48.950
0.833,0.712,0.072,41.626,-5.249,-44.739
0.877,0.683,0.115,35.156,-1.770,-44.861
0.927,0.685,0.105,29.175,1.770,-45.166
0.973,0.661,0.098,24.963,-0.183,-46.753
0.988,0.636,0.092,28.931,-0.549,-45.837
0.988,0.610,0.087,33.875,-1.587,-46.997
0.967,0.610,0.093,38.635,-3.723,-50.781
0.919,0.629,0.089,42.725,-7.263,-54.016
0.869,0.632,0.082,45.776,-11.475,-57.251
0.833,0.605,0.073,47.363,-14.465,-61.646
0.842,0.499,0.093,48.645,-14.771,-66.406
0.870,0.341,0.121,49.316,-13.672,-70.496
0.855,0.204,0.112,47.607,-11.536,-71.533
0.813,0.100,0.074,42.053,-7.019,-68.054
0.803,0.016,0.042,32.776,2.930,-62.378
0.818,-0.022,0.030,22.034,18.616,-57.068
0.840,-0.005,0.031,9.644,34.729,-54.443
0.875,0.064,0.034,-0.732,47.913,-54.199
0.917,0.153,0.036,-5.676,55.420,-56.091
0.956,0.247,0.053,-4.211,54.077,-57.556
0.976,0.309,0.076,5.005,40.649,-58.105
1.021,0.239,0.102,20.752,16.602,-55.969
1.029,0.093,0.100,37.476,-11.353,-50.232
0.925,-0.035,0.059,47.424,-34.180,-44.067
0.820,-0.196,-0.002,51.453,-39.001,-39.917
0.771,-0.340,-0.049,48.096,-25.757,-40.161
0.755,-0.398,-0.066,32.654,-2.014,-44.617
0.751,-0.369,-0.090,10.559,24.048,-48.462
0.759,-0.282,-0.113,-9.460,49.194,-51.270
0.797,-0.169,-0.106,-24.414,70.740,-54.565
0.830,-0.097,-0.060,-31.799,84.045,-55.786
0.849,-0.061,-0.005,-30.396,83.984,-55.664
0.945,-0.115,0.095,-23.560,70.740,-51.208
1.022,-0.220,0.130,-15.076,49.866,-42.847
0.992,-0.344,0.073,-6.836,30.884,-35.217
0.942,-0.456,0.033,2.502,23.071,-34.485
0.900,-0.541,-0.062,10.132,24.902,-38.635
0.854,-0.602,-0.135,9.583,31.311,-42.725
0.816,-0.642,-0.180,3.357,37.964,-42.358
0.829,-0.670,-0.200,-6.226,41.992,-38.269
0.875,-0.690,-0.167,-19.409,43.823,-34.607
0.893,-0.681,-0.130,-30.090,42.603,-31.921
0.923,-0.641,-0.083,-35.767,40.344,-29.419
0.977,-0.628,-0.019,-34.363,35.583,-28.198
1.007,-0.628,0.043,-23.315,27.405,-27.405
1.025,-0.622,0.086,-6.836,13.428,-26.672
1.024,-0.616,0.077,9.888,-4.578,-24.719
0.989,-0.611,0.035,23.987,-23.376,-21.118
0.943,-0.622,-0.028,36.072,-38.391,-16.968

0.979,-0.076,0.029,-0.977,2.136,5.432
1.001,-0.167,0.077,-1.770,4.150,5.371
1.011,-0.196,0.060,5.188,11.230,6.042
1.018,-0.246,0.041,4.089,11.108,7.812
1.037,-0.289,0.019,2.808,10.681,11.841
1.043,-0.323,0.000,-0.366,8.423,14.038
1.047,-0.371,0.004,-2.502,9.460,14.282
1.049,-0.423,0.016,-3.723,13.062,12.329
1.044,-0.446,0.006,-4.578,17.395,8.545
1.070,-0.489,-0.015,-4.089,23.254,5.188
1.109,-0.528,-0.060,-3.174,27.588,2.502
1.148,-0.560,-0.099,-2.014,30.457,-2.136
1.177,-0.597,-0.122,-1.038,32.227,-9.155
1.158,-0.652,-0.155,0.671,34.180,-16.846
1.136,-0.705,-0.186,2.014,39.612,-25.513
1.110,-0.705,-0.194,-0.916,45.044,-31.860
1.051,-0.734,-0.183,-5.371,49.683,-31.311
1.028,-0.852,-0.249,-9.705,52.856,-29.846
0.967,-0.771,-0.081,-12.024,50.964,-27.893
0.881,-0.779,-0.054,-10.071,34.424,-19.836
0.858,-0.801,-0.128,-3.418,18.066,-0.977
0.842,-0.856,-0.204,-3.235,9.155,18.372
0.825,-0.845,-0.235,-4.211,7.141,30.701
0.841,-0.796,-0.235,-8.789,11.780,38.635
0.878,-0.748,-0.247,-13.489,16.724,43.396
0.909,-0.701,-0.261,-19.348,20.081,43.396
0.901,-0.629,-0.262,-26.550,22.156,38.757
0.869,-0.551,-0.286,-32.715,24.719,30.640
0.826,-0.523,-0.310,-36.377,29.602,20.386
0.777,-0.518,-0.304,-40.649,37.720,10.254
0.750,-0.478,-0.264,-48.645,44.678,3.296
0.722,-0.401,-0.198,-55.420,48.889,1.526
0.678,-0.298,-0.146,-57.800,49.072,6.775
0.639,-0.216,-0.123,-57.922,44.983,18.860
0.630,-0.203,-0.098,-61.829,38.330,31.982
0.620,-0.162,-0.092,-72.021,32.288,40.649
0.568,-0.047,-0.154,-82.947,30.151,43.091
0.499,0.082,-0.218,-91.675,38.452,43.030
0.451,0.244,-0.273,-95.947,57.983,44.922
0.468,0.425,-0.362,-93.750,82.947,48.096
0.571,0.540,-0.432,-84.534,107.544,54.443
0.722,0.635,-0.478,-72.266,122.742,65.002
0.875,0.759,-0.528,-58.533,122.009,78.979
1.015,0.800,-0.557,-44.434,99.121,96.741
1.235,1.027,-0.778,-29.480,54.016,114.868
1.074,0.802,-0.651,-23.132,19.165,155.945
1.063,0.753,-0.524,-38.818,-27.893,167.542
1.010,0.923,-0.578,-62.988,-72.510,156.555
0.813,1.033,-0.495,-73.669,-80.200,145.935
0.750,1.121,-0.290,-79.163,-55.908,135.681
0.866,1.246,-0.145,-82.703,-25.024,123.413
1.087,1.458,-0.001,-71.594,-2.319,112.427
1.195,1.247,-0.059,-46.692,1.526,108.643
1.349,1.191,-0.002,-26.611,-12.878,98.450
1.316,0.970,0.109,-9.949,-46.509,86.487
1.191,0.856,0.192,-8.057,-83.069,72.510
1.064,0.824,0.203,-7.751,-101.196,53.711
0.985,0.852,0.197,-1.526,-94.666,36.682
0.990,0.847,0.207,7.690,-71.289,27.283
1.030,0.834,0.220,19.470,-46.936,21.301
1.072,0.805,0.199,33.081,-31.311,15.259
1.095,0.789,0.151,46.509,-26.367,7.385
1.104,0.824,0.088,58.777,-28.748,0.183
1.123,0.832,-0.007,67.200,-35.828,-5.249
1.109,0.818,-0.057,72.205,-40.466,-11.108
1.107,0.777,-0.069,76.599,-42.175,-19.409
1.137,0.770,-0.058,78.674,-44.983,-28.992
1.109,0.801,-0.022,79.407,-52.856,-37.537
1.071,0.857,-0.023,82.397,-64.575,-42.664
1.015,0.870,0.026,85.632,-71.838,-41.077
0.888,0.883,0.116,88.257,-75.745,-35.461
0.796,0.856,0.155,95.337,-68.481,-24.780
0.782,0.792,0.230,94.971,-69.153,-17.639
0.821,0.678,0.245,93.384,-72.449,-17.944
0.765,0.639,0.201,90.149,-68.298,-14.526
0.756,0.604,0.186,89.111,-56.458,-5.066
0.828,0.551,0.180,83.557,-46.143,-1.038
0.821,0.557,0.136,75.928,-34.729,1.831
0.796,0.558,0.111,71.655,-17.944,8.972
0.821,0.572,0.133,65.918,-3.784,11.536
0.874,0.637,0.109,58.655,8.240,5.615
0.911,0.715,0.080,52.917,21.606,-3.296
0.989,0.796,0.066,48.462,33.203,-18.799
1.129,0.814,0.088,46.448,38.757,-41.931
1.274,0.682,0.118,46.997,33.875,-65.796
1.267,0.521,0.120,49.011,18.188,-79.529
1.134,0.352,0.081,54.199,-5.005,-85.205
0.970,0.185,0.017,59.631,-26.306,-89.783
0.848,0.030,-0.029,57.129,-35.889,-89.600
0.752,-0.077,-0.056,44.617,-31.860,-84.534
0.685,-0.105,-0.085,25.696,-17.944,-81.726
0.675,-0.009,-0.063,7.507,1.953,-84.106
0.706,0.131,-0.020,-3.845,18.921,-85.449
0.789,0.150,0.054,-5.127,25.818,-80.322
0.869,0.051,0.199,4.761,21.362,-69.397
0.844,-0.051,0.202,17.151,2.441,-58.228
0.763,-0.151,0.134,27.893,-11.658,-50.781
0.717,-0.264,0.064,34.485,-13.306,-43.274
0.715,-0.398,0.013,34.485,-4.333,-35.828
0.706,-0.483,-0.056,29.724,9.766,-30.212
0.719,-0.485,-0.075,21.606,28.748,-25.635
0.765,-0.419,-0.084,11.597,44.922,-22.827
0.813,-0.343,-0.091,2.563,52.673,-20.081
0.867,-0.272,-0.085,-1.953,52.917,-16.968
0.930,-0.261,-0.067,0.366,47.852,-15.930
0.958,-0.279,-0.052,7.324,39.795,-18.433
0.961,-0.339,-0.045,13.916,32.715,-22.827
0.965,-0.426,-0.046,19.043,28.198,-28.564
0.975,-0.493,-0.070,18.860,24.841,-34.668
0.970,-0.535,-0.129,13.367,23.010,-38.757
0.938,-0.571,-0.169,8.057,24.902,-41.626
0.894,-0.578,-0.192,2.136,32.166,-44.495
0.860,-0.561,-0.224,-4.944,39.978,-45.349
0.857,-0.551,-0.247,-13.733,45.349,-43.213
0.886,-0.551,-0.248,-20.874,48.218,-39.490
0.930,-0.533,-0.231,-25.757,46.753,-35.889
0.978,-0.510,-0.188,-26.917,39.795,-32.959
1.020,-0.524,-0.138,-23.071,29.236,-29.419
1.014,-0.529,-0.105,-15.869,17.700,-26.123

1.012,-0.166,-0.054,-8.789,-14.343,6.165
0.978,-0.259,-0.093,-4.211,-10.620,6.775
0.947,-0.251,-0.024,-1.465,-3.235,7.812
0.999,-0.280,-0.074,-17.517,3.174,9.338
1.025,-0.320,-0.096,-19.043,11.169,8.911
1.081,-0.389,-0.152,-19.409,19.531,4.761
1.087,-0.453,-0.175,-22.034,26.245,-1.892
1.095,-0.516,-0.167,-25.085,28.320,-5.676
1.113,-0.596,-0.187,-27.222,21.667,-5.127
1.125,-0.662,-0.180,-25.574,12.146,-3.113
1.118,-0.724,-0.182,-20.691,2.136,-0.366
1.047,-0.784,-0.199,-16.296,-7.324,1.953
0.954,-0.814,-0.205,-15.198,-10.010,5.432
0.892,-0.816,-0.146,-17.334,-4.150,8.789
0.872,-0.808,-0.080,-18.860,10.132,10.254
0.878,-0.794,0.004,-16.479,27.893,8.423
0.901,-0.789,-0.007,-12.024,36.926,8.179
0.870,-0.794,-0.008,-5.554,36.743,13.977
0.804,-0.800,-0.009,1.953,38.452,25.085
0.779,-0.742,-0.049,0.793,35.583,38.391
0.789,-0.668,-0.035,-3.418,31.738,53.955
0.972,-0.696,0.046,-2.869,25.879,66.040
0.918,-0.558,-0.122,-4.517,13.733,72.632
1.032,-0.565,-0.151,-0.732,1.709,80.078
1.121,-0.549,-0.173,-4.211,-7.141,81.177
1.188,-0.484,-0.138,-2.686,-17.090,75.867
1.176,-0.383,-0.085,3.601,-34.607,69.092
1.085,-0.306,-0.049,9.583,-57.922,64.148
0.967,-0.263,-0.027,14.343,-78.918,62.134
0.873,-0.227,-0.046,16.907,-91.858,60.852
0.818,-0.196,-0.095,17.700,-93.994,58.899
0.799,-0.176,-0.150,16.174,-85.571,54.688
0.806,-0.160,-0.213,9.583,-68.420,45.288
0.785,-0.089,-0.279,-4.333,-47.058,29.968
0.726,0.022,-0.338,-21.851,-24.170,10.925
0.711,0.166,-0.349,-37.170,-0.610,-6.042
0.739,0.284,-0.292,-46.509,15.076,-17.212
0.747,0.366,-0.192,-53.101,10.620,-18.616
0.714,0.421,-0.097,-61.707,-13.123,-10.071
0.615,0.449,-0.047,-71.899,-47.913,3.479
0.456,0.491,-0.080,-81.787,-77.271,17.029
0.229,0.613,-0.107,-94.849,-85.632,28.809
0.120,0.727,-0.125,-109.497,-69.641,35.400
0.312,1.068,-0.218,-118.408,-30.273,35.583
0.329,0.938,-0.049,-119.507,41.870,65.979
0.477,0.984,0.099,-117.554,87.280,74.768
0.744,1.172,-0.025,-118.103,100.525,79.041
0.954,1.346,-0.098,-108.215,106.323,93.506
1.175,1.461,-0.010,-93.628,102.844,113.647
1.375,1.496,0.106,-84.412,79.895,126.831
1.541,1.506,0.214,-77.148,46.875,129.883
1.708,1.510,0.361,-65.796,17.517,125.854
1.682,1.380,0.382,-45.959,-5.310,112.671
1.740,1.309,0.452,-31.677,-15.808,90.942
1.679,1.194,0.539,-9.644,-28.992,64.453
1.504,1.128,0.502,10.742,-43.945,36.682
1.355,1.081,0.485,25.452,-54.443,10.559
1.207,0.966,0.427,44.434,-58.533,-14.282
1.046,0.885,0.330,58.289,-51.453,-34.729
0.919,0.828,0.269,64.453,-36.926,-47.119
0.857,0.762,0.225,70.496,-21.606,-52.673
0.867,0.717,0.214,73.975,-8.728,-54.810
0.816,0.795,0.185,76.538,-5.432,-56.885
0.780,0.827,0.094,77.820,-9.827,-55.054
0.827,0.737,0.102,80.872,-12.085,-50.476
0.831,0.705,0.062,80.322,-15.625,-49.194
0.852,0.688,0.033,77.087,-19.409,-46.692
0.897,0.675,0.073,74.036,-25.757,-39.978
0.938,0.703,0.131,72.144,-37.659,-30.762
0.964,0.747,0.157,73.059,-53.528,-18.250
0.959,0.730,0.157,78.674,-69.153,-4.395
0.926,0.674,0.124,87.097,-78.857,6.836
0.870,0.626,0.077,92.102,-77.271,14.038
0.852,0.570,0.057,93.201,-64.209,17.822
0.872,0.511,0.066,87.952,-45.105,20.630
0.885,0.486,0.074,74.768,-23.865,16.602
0.906,0.478,0.081,62.073,0.183,2.869
0.964,0.417,0.091,52.673,25.269,-11.780
0.997,0.367,0.094,44.617,45.166,-26.550
0.985,0.364,0.100,34.729,55.054,-38.513
0.970,0.390,0.125,22.949,56.702,-43.396
0.966,0.393,0.194,13.489,51.208,-41.504
0.959,0.353,0.238,14.038,38.330,-37.292
0.949,0.301,0.218,18.677,20.874,-33.020
0.918,0.236,0.151,25.208,6.165,-26.001
0.903,0.112,0.072,34.912,2.808,-19.531
0.890,-0.019,0.004,43.396,9.399,-18.982
0.867,-0.098,-0.052,45.837,20.935,-25.513
0.827,-0.099,-0.086,43.823,35.522,-33.691
0.841,-0.120,-0.076,43.518,55.176,-41.199
0.847,-0.135,-0.039,32.166,63.599,-45.532
0.839,-0.089,0.030,15.686,58.533,-47.424
0.807,-0.059,0.064,4.456,51.086,-54.688
0.789,-0.045,0.081,1.526,46.082,-63.843
0.782,-0.065,0.127,4.944,43.884,-65.613
0.803,-0.194,0.158,12.695,42.236,-58.472
0.840,-0.332,0.139,20.752,35.461,-51.880
0.863,-0.381,0.071,21.729,25.818,-47.729
0.861,-0.457,0.015,18.188,17.761,-39.063
0.814,-0.484,-0.025,16.541,14.893,-33.081
0.803,-0.490,-0.072,20.691,22.583,-29.724
0.822,-0.482,-0.067,23.315,42.175,-28.687
0.813,-0.455,-0.050,12.390,46.326,-34.790
0.812,-0.389,-0.095,-0.732,38.635,-41.687
0.799,-0.314,-0.095,-11.230,35.034,-47.729
0.805,-0.298,-0.096,-20.020,33.386,-50.476
0.857,-0.345,-0.052,-21.851,29.053,-50.110
0.927,-0.425,0.001,-18.005,19.287,-47.607
0.935,-0.499,0.024,-14.160,3.296,-44.312
0.923,-0.539,0.018,-11.597,-12.695,-36.560
0.939,-0.571,-0.020,-12.695,-23.560,-26.001
0.953,-0.563,-0.098,-15.076,-28.076,-16.479
0.963,-0.489,-0.147,-20.386,-27.405,-13.306
0.937,-0.358,-0.136,-26.489,-21.423,-14.954
1.022,-0.265,-0.160,-29.846,-16.602,-13.733
1.120,-0.240,-0.156,-31.433,-13.306,-11.841
1.151,-0.204,-0.144,-30.334,-9.338,-12.634
1.186,-0.181,-0.113,-27.344,-7.385,-13.733
1.219,-0.218,-0.096,-19.897,-12.695,-13.367

0.989,-0.193,0.077,-8.545,33.630,3.906
0.997,-0.156,-0.003,-6.226,36.804,9.888
1.048,-0.280,0.068,3.174,38.452,19.165
1.074,-0.320,0.023,4.211,34.790,25.391
1.120,-0.435,0.052,11.475,32.349,30.457
1.152,-0.522,-0.000,14.404,25.696,33.691
1.146,-0.592,-0.087,11.719,14.038,32.715
1.122,-0.685,-0.126,8.606,8.362,28.198
1.110,-0.758,-0.145,4.089,9.033,20.752
1.082,-0.823,-0.160,-2.075,11.963,13.733
1.050,-0.841,-0.155,-8.728,18.921,8.972
1.001,-0.908,-0.118,-16.602,31.555,9.277
0.987,-0.874,-0.121,-24.719,49.500,9.766
1.030,-0.879,-0.154,-29.358,69.031,10.193
1.097,-0.880,-0.142,-31.372,80.994,13.123
1.139,-0.899,-0.070,-32.104,77.393,18.250
1.139,-0.957,-0.040,-28.442,59.875,26.489
1.013,-0.946,0.004,-31.982,39.490,29.480
0.991,-0.834,-0.120,-33.203,19.958,30.029
0.955,-0.841,-0.117,-28.687,9.460,36.743
0.897,-0.723,-0.150,-33.264,4.028,41.504
0.804,-0.586,-0.191,-31.494,-0.061,43.091
0.772,-0.494,-0.222,-29.114,1.282,48.096
0.809,-0.390,-0.227,-28.259,3.235,54.932
0.882,-0.246,-0.202,-22.217,-0.549,54.443
0.867,-0.052,-0.143,-15.198,-13.306,46.936
0.749,0.135,-0.076,-8.301,-35.645,42.236
0.614,0.210,-0.030,-4.150,-61.707,45.166
0.393,0.252,-0.036,-6.836,-82.886,52.307
0.173,0.361,-0.035,-21.973,-84.106,62.622
0.124,0.549,-0.020,-38.269,-58.655,72.388
0.226,0.758,-0.013,-51.941,-16.907,76.355
0.431,0.884,-0.078,-67.139,26.550,69.946
0.630,0.967,-0.189,-77.393,61.462,51.208
0.637,0.974,-0.066,-80.200,83.496,29.602
0.864,1.334,-0.337,-77.637,84.290,15.320
0.974,1.444,0.084,-67.871,80.383,34.180
0.994,1.198,0.343,-52.185,35.583,68.237
1.077,1.177,0.162,-43.396,-35.339,81.970
1.022,1.273,-0.048,-59.265,-67.566,96.130
1.042,1.313,-0.065,-68.298,-53.406,112.427
1.246,1.280,0.106,-56.763,-24.048,117.737
1.475,1.220,0.283,-45.227,-10.742,107.605
1.552,1.158,0.375,-39.246,-19.165,80.872
1.505,1.134,0.444,-32.043,-35.034,46.021
1.391,1.107,0.522,-22.095,-45.410,14.709
1.237,1.016,0.579,-4.700,-47.913,-5.737
1.085,0.889,0.565,12.695,-48.340,-17.578
0.934,0.780,0.492,25.513,-46.143,-23.926
0.783,0.688,0.357,36.926,-39.246,-26.245
0.728,0.677,0.302,46.204,-24.109,-27.344
0.773,0.720,0.304,58.777,-9.155,-25.940
0.770,0.518,0.095,70.374,-5.127,-20.203
0.788,0.613,-0.039,64.819,7.568,-20.569
0.853,0.671,-0.094,61.584,18.494,-18.555
0.961,0.647,-0.109,54.810,24.414,-13.550
1.007,0.659,-0.110,44.556,25.024,-13.062
1.034,0.701,-0.106,34.851,21.729,-15.869
1.088,0.743,-0.060,27.893,16.785,-22.522
1.110,0.749,0.013,23.560,7.812,-32.043
1.080,0.748,0.048,23.315,-5.859,-40.344
1.051,0.730,0.075,24.170,-19.653,-44.495
1.019,0.682,0.116,23.376,-28.564,-41.443
0.995,0.659,0.162,23.193,-31.982,-36.255
0.906,0.635,0.154,25.879,-32.776,-33.325
0.886,0.723,0.142,27.466,-29.297,-29.785
0.899,0.740,0.154,29.663,-21.973,-23.010
0.864,0.700,0.179,33.081,-18.005,-17.212
0.837,0.633,0.165,35.583,-19.104,-14.709
0.848,0.527,0.122,36.316,-21.912,-11.841
0.876,0.441,0.115,31.921,-22.034,-7.874
0.875,0.379,0.106,25.330,-16.968,-5.920
0.897,0.328,0.067,20.630,-7.812,-7.019
0.927,0.280,0.057,21.423,3.601,-11.169
0.946,0.279,0.102,22.583,13.916,-18.066
0.970,0.264,0.135,22.644,16.846,-25.635
0.946,0.291,0.116,21.851,10.925,-31.982
0.895,0.322,0.094,21.484,2.869,-37.842
0.855,0.326,0.080,26.489,-4.700,-41.016
0.864,0.287,0.076,36.072,-12.573,-40.222
0.902,0.213,0.100,46.326,-18.616,-35.889
0.926,0.114,0.140,56.580,-26.428,-27.954
0.851,-0.036,0.104,67.017,-34.729,-20.081
0.767,-0.234,0.016,76.050,-32.532,-18.799
0.776,-0.266,0.052,70.862,-14.954,-24.841
0.752,-0.344,-0.054,46.509,-2.197,-25.818
0.726,-0.312,-0.186,13.611,10.803,-26.672
0.799,-0.202,-0.173,-14.954,25.574,-27.039
0.887,-0.044,-0.050,-29.114,31.616,-28.931
0.916,0.083,0.088,-25.208,22.827,-33.936
0.906,0.057,0.221,-8.362,5.493,-34.973
0.859,-0.076,0.257,12.207,-12.573,-31.860
0.827,-0.293,0.246,28.748,-24.170,-27.222
0.783,-0.458,0.179,33.264,-26.123,-22.583
0.757,-0.538,0.121,28.320,-15.991,-19.104
0.797,-0.575,0.083,17.944,0.305,-16.968
0.848,-0.567,0.019,4.456,17.212,-15.625
0.929,-0.516,-0.042,-10.376,30.945,-15.259
1.044,-0.451,-0.057,-25.330,39.734,-17.395
1.136,-0.383,-0.031,-33.325,42.786,-22.949
1.209,-0.348,0.010,-31.311,38.208,-30.884
1.235,-0.373,0.048,-22.339,27.405,-36.743
1.203,-0.395,0.060,-13.672,14.465,-37.537
1.158,-0.419,0.085,-6.042,4.639,-35.889
1.087,-0.414,0.079,0.977,1.099,-32.410
1.055,-0.488,0.046,9.521,4.456,-26.917
1.040,-0.560,0.001,13.245,10.986,-19.409
1.050,-0.535,-0.035,8.118,15.503,-12.512
1.101,-0.487,-0.051,2.075,18.250,-8.972
1.132,-0.443,-0.067,-2.197,18.433,-8.545
1.125,-0.374,-0.090,-6.775,15.686,-12.085
1.135,-0.312,-0.079,-9.277,14.099,-17.517
1.158,-0.269,-0.036,-8.057,12.390,-23.437
1.135,-0.213,0.009,-5.432,8.362,-27.283
1.098,-0.174,0.059,-0.977,1.831,-29.053
1.073,-0.161,0.108,4.944,-3.540,-27.710
0.999,-0.164,0.087,11.353,-6.958,-24.780
0.950,-0.189,0.055,14.587,-9.277,-19.592
0.945,-0.214,0.041,13.367,-8.911,-11.475

0.933,-0.279,0.027,2.075,19.104,24.658
0.966,-0.401,-0.033,10.010,23.132,31.006
0.921,-0.436,-0.008,3.845,24.963,36.316
0.952,-0.494,-0.028,-1.343,22.034,42.969
0.996,-0.537,-0.072,-2.930,18.188,49.133
1.050,-0.594,-0.092,-3.601,16.846,50.598
1.111,-0.639,-0.108,-3.479,18.127,45.288
1.162,-0.666,-0.141,-5.127,18.250,34.424
1.204,-0.685,-0.151,-9.888,16.357,22.644
1.180,-0.703,-0.178,-15.564,14.343,12.024
1.153,-0.737,-0.155,-19.531,12.878,1.587
1.137,-0.732,-0.158,-22.705,9.033,-9.216
1.103,-0.685,-0.174,-22.339,7.935,-20.874
1.061,-0.742,-0.172,-17.822,14.038,-31.067
1.071,-0.731,-0.160,-14.893,24.292,-39.612
1.038,-0.686,-0.133,-18.005,30.029,-40.283
1.083,-0.677,-0.127,-20.203,31.738,-33.325
1.045,-0.652,-0.116,-25.269,31.677,-26.001
0.984,-0.668,0.002,-35.095,32.776,-18.311
1.009,-0.615,-0.113,-46.814,33.020,-10.864
0.948,-0.569,-0.088,-44.250,29.175,-0.732
0.915,-0.530,-0.102,-44.800,24.048,13.062
0.927,-0.440,-0.075,-38.818,12.390,25.269
0.942,-0.384,-0.077,-30.090,-4.272,37.964
0.917,-0.339,-0.123,-22.644,-18.005,50.659
0.891,-0.291,-0.140,-13.855,-32.227,57.556
0.844,-0.172,-0.149,-9.094,-48.462,56.580
0.749,-0.007,-0.175,-5.005,-61.401,49.561
0.658,0.139,-0.132,1.160,-67.566,43.884
0.594,0.237,-0.054,4.883,-70.984,47.546
0.547,0.331,0.028,0.366,-74.341,58.289
0.504,0.457,0.099,-12.939,-72.632,67.505
0.504,0.573,0.135,-28.870,-60.059,70.190
0.541,0.706,0.138,-41.321,-37.720,66.467
0.567,0.799,0.079,-48.584,-11.230,57.068
0.585,0.875,-0.013,-51.086,15.747,47.546
0.555,0.753,0.074,-50.476,39.917,43.213
0.700,1.116,-0.251,-47.974,54.138,43.457
0.748,1.130,0.007,-44.922,73.792,73.364
0.880,1.049,0.108,-44.434,59.204,100.098
1.025,1.150,0.020,-44.067,22.278,101.440
1.021,1.290,-0.008,-44.495,-6.958,100.952
1.057,1.287,0.085,-49.072,-22.705,103.149
1.151,1.198,0.163,-53.589,-32.043,97.595
1.196,1.119,0.230,-56.274,-37.842,82.336
1.210,1.063,0.283,-59.326,-34.912,62.439
1.235,1.051,0.379,-56.885,-24.353,44.128
1.298,1.046,0.505,-47.913,-13.245,29.114
1.351,1.036,0.598,-33.936,-7.202,17.151
1.329,0.981,0.638,-12.451,-10.925,6.348
1.238,0.913,0.614,9.399,-21.545,-2.136
1.132,0.878,0.529,25.940,-32.776,-7.507
1.053,0.836,0.440,36.377,-38.330,-13.245
1.005,0.806,0.348,43.274,-35.645,-20.325
0.950,0.794,0.272,45.166,-25.391,-27.710
0.931,0.788,0.287,43.701,-11.230,-33.813
0.937,0.780,0.285,41.931,-3.601,-35.889
0.916,0.762,0.264,41.870,-1.221,-37.170
0.886,0.750,0.232,42.847,1.526,-39.246
0.872,0.743,0.212,41.931,7.019,-39.673
0.880,0.722,0.214,42.175,13.916,-38.879
0.893,0.724,0.207,43.152,18.372,-37.231
0.933,0.719,0.197,44.495,20.020,-33.630
0.971,0.681,0.187,44.312,17.517,-26.367
0.966,0.631,0.158,43.030,9.827,-19.104
0.960,0.593,0.102,40.039,0.183,-14.954
0.939,0.583,0.048,33.386,-5.432,-11.780
0.900,0.590,0.047,24.658,-9.033,-7.935
0.885,0.611,0.068,18.250,-13.794,-5.737
0.902,0.611,0.119,18.005,-19.226,-6.226
0.876,0.681,0.153,24.353,-22.400,-7.080
0.889,0.649,0.259,40.283,-21.973,-6.531
0.918,0.524,0.297,64.087,-18.494,-3.357
0.907,0.401,0.240,85.999,-16.724,0.427
0.857,0.286,0.151,90.576,-16.541,4.517
0.807,0.180,0.056,80.383,-13.000,7.263
0.793,0.138,-0.029,63.660,-3.296,7.812
0.818,0.160,-0.039,43.518,9.827,4.944
0.844,0.251,-0.011,27.893,19.287,-3.662
0.840,0.380,0.019,21.790,20.081,-12.939
0.911,0.411,0.101,26.245,13.184,-16.052
0.994,0.290,0.207,38.696,-0.305,-11.536
0.995,0.025,0.132,48.584,-19.287,-6.104
0.933,-0.101,0.035,51.025,-26.184,-12.695
0.888,-0.212,-0.015,45.959,-11.292,-23.376
0.831,-0.347,-0.090,33.325,5.798,-31.433
0.825,-0.361,-0.143,14.893,30.334,-44.434
0.823,-0.291,-0.099,-4.333,55.481,-52.795
0.858,-0.209,-0.022,-22.827,67.261,-56.519
0.885,-0.138,0.002,-35.034,66.406,-59.021
0.890,-0.056,0.052,-36.743,58.228,-58.472
0.889,-0.035,0.119,-29.297,42.603,-52.856
0.889,-0.101,0.140,-17.090,24.963,-42.908
0.923,-0.266,0.096,-2.808,15.503,-32.043
0.947,-0.412,0.048,5.127,16.113,-26.184
0.932,-0.505,-0.037,2.319,20.203,-25.146
0.923,-0.540,-0.084,-6.042,27.100,-26.428
0.906,-0.515,-0.103,-17.456,34.119,-28.076
0.888,-0.459,-0.099,-33.569,42.664,-28.748
0.927,-0.433,-0.095,-48.279,51.819,-28.992
0.980,-0.370,-0.081,-56.274,60.547,-32.837
1.019,-0.313,-0.060,-60.059,64.392,-38.025
1.078,-0.315,-0.027,-63.354,59.204,-40.222
1.102,-0.348,0.003,-61.401,49.927,-41.016
1.094,-0.399,0.018,-52.979,39.978,-42.847
1.059,-0.450,0.013,-41.077,30.579,-44.434
1.010,-0.499,-0.051,-29.663,21.423,-44.312
0.958,-0.495,-0.090,-24.170,15.198,-40.161
0.941,-0.491,-0.124,-25.024,10.376,-31.006
0.946,-0.471,-0.150,-33.203,7.080,-19.348
0.970,-0.411,-0.163,-43.823,5.676,-10.254
0.993,-0.318,-0.145,-50.415,8.057,-5.859
1.049,-0.175,-0.106,-50.659,13.062,-6.104
1.215,-0.125,0.019,-38.635,17.578,-10.132
1.237,-0.057,0.023,-18.188,11.414,-17.700
1.199,-0.066,-0.027,6.958,-2.747,-25.024
1.142,-0.126,-0.046,30.518,-17.578,-26.672
1.065,-0.180,-0.108,41.016,-29.663,-25.085
0.985,-0.219,-0.136,41.382,-35.706,-22.644

0.852,-0.187,0.116,1.465,47.119,19.531
0.989,-0.394,0.022,6.592,56.030,26.123
1.075,-0.369,-0.046,13.550,63.477,25.818
1.222,-0.462,-0.080,14.404,59.143,18.799
1.281,-0.447,-0.115,14.954,45.654,10.193
1.283,-0.563,-0.134,13.550,26.001,0.183
1.258,-0.587,-0.166,9.766,7.446,-14.954
1.212,-0.663,-0.206,7.568,-2.380,-33.386
1.162,-0.741,-0.214,4.883,-5.188,-48.523
1.020,-0.766,-0.286,-4.761,-7.202,-61.951
0.979,-0.740,-0.214,-15.076,2.563,-69.031
0.982,-0.774,-0.139,-20.874,16.052,-69.336
1.007,-0.711,-0.102,-19.348,22.705,-70.068
1.017,-0.668,-0.092,-13.428,17.700,-64.941
0.996,-0.596,-0.117,-7.935,2.197,-54.810
0.976,-0.582,-0.096,-3.601,-14.771,-41.870
0.938,-0.582,-0.115,0.549,-30.029,-29.602
0.887,-0.576,-0.152,2.197,-38.269,-19.714
0.837,-0.554,-0.197,0.610,-34.790,-9.460
0.876,-0.637,0.006,-6.531,-21.973,2.136
0.857,-0.630,-0.158,-14.954,-11.841,12.390
0.827,-0.677,-0.132,-19.226,-5.493,31.189
0.814,-0.684,-0.138,-29.419,-2.808,52.063
0.849,-0.667,-0.115,-41.992,-3.784,65.918
0.905,-0.577,-0.069,-46.265,-9.094,68.542
0.914,-0.321,-0.047,-39.856,-26.184,64.636
0.922,-0.078,0.019,-33.203,-49.316,71.777
0.947,0.004,0.107,-19.958,-73.914,88.745
0.899,0.024,0.166,-1.038,-101.807,100.159
0.726,0.024,0.136,11.353,-123.779,102.356
0.505,-0.052,0.062,3.296,-122.253,99.731
0.400,-0.090,0.045,-26.855,-85.876,89.417
0.424,0.034,0.011,-64.392,-24.170,69.946
0.513,0.275,-0.000,-91.064,39.124,47.791
0.650,0.515,-0.009,-98.083,85.205,30.945
0.769,0.698,-0.035,-88.013,104.065,23.987
0.750,0.824,-0.039,-68.481,94.116,28.687
0.766,1.060,-0.199,-51.758,58.472,36.621
0.717,1.203,-0.078,-40.466,30.212,62.195
0.626,1.023,0.097,-39.307,11.536,100.464
0.700,1.093,0.011,-42.053,-16.968,108.459
0.750,1.226,-0.114,-43.579,-25.452,102.783
0.806,1.281,-0.097,-38.025,-6.714,95.154
0.909,1.222,-0.079,-31.311,18.616,83.984
1.057,1.167,-0.010,-30.090,37.903,71.716
1.215,1.132,0.040,-27.710,44.434,59.631
1.344,1.120,0.092,-23.010,34.973,49.988
1.436,1.078,0.185,-17.029,10.254,44.983
1.455,0.999,0.264,-9.521,-23.743,40.710
1.387,0.946,0.304,-4.089,-55.664,34.912
1.286,0.928,0.339,-0.488,-73.120,27.344
1.190,0.917,0.380,2.441,-72.449,16.724
1.109,0.912,0.389,5.737,-58.777,2.441
1.062,0.910,0.358,10.620,-37.964,-14.282
1.047,0.901,0.324,17.029,-15.991,-31.311
1.037,0.937,0.321,23.376,-1.953,-43.274
1.007,0.911,0.214,30.945,-1.587,-46.448
1.003,0.838,0.151,39.795,-5.737,-41.138
1.000,0.801,0.115,44.067,-13.000,-31.494
0.986,0.800,0.087,45.044,-22.949,-22.278
0.970,0.783,0.054,43.152,-31.006,-16.479
0.962,0.759,0.046,39.917,-33.813,-14.465
0.948,0.744,0.070,36.194,-31.494,-14.709
0.942,0.762,0.119,31.128,-28.076,-15.991
0.939,0.757,0.125,28.564,-25.024,-17.273
0.949,0.728,0.096,28.625,-22.705,-16.541
0.963,0.676,0.048,27.649,-20.569,-15.503
0.989,0.574,0.042,25.757,-16.418,-15.076
0.991,0.501,0.041,23.499,-12.573,-14.587
0.963,0.508,0.055,21.790,-8.240,-14.221
0.937,0.536,0.136,23.437,-4.883,-12.634
0.932,0.517,0.172,29.846,-7.019,-9.216
0.914,0.513,0.160,31.006,-11.597,-8.789
0.871,0.531,0.150,29.297,-10.559,-14.832
0.848,0.516,0.125,32.104,-5.737,-25.330
0.890,0.422,0.117,34.851,-0.183,-33.875
0.965,0.279,0.124,35.583,7.935,-37.292
1.012,0.160,0.136,37.598,14.038,-39.185
1.024,0.070,0.125,41.443,14.221,-42.603
0.981,0.018,0.080,40.710,11.230,-45.532
0.922,-0.037,0.038,34.851,10.132,-46.753
0.884,-0.086,0.042,27.283,11.780,-47.363
0.847,-0.089,0.018,17.944,13.733,-49.744
0.804,-0.064,0.021,6.958,14.832,-53.833
0.771,-0.058,0.046,2.319,15.076,-56.946
0.777,-0.102,0.075,3.052,11.108,-60.913
0.807,-0.096,0.149,10.742,9.033,-64.148
0.802,-0.135,0.223,18.860,6.287,-59.875
0.794,-0.272,0.214,25.085,0.671,-48.767
0.795,-0.356,0.173,27.466,1.038,-38.208
0.794,-0.441,0.140,29.419,8.667,-29.297
0.786,-0.496,0.087,27.649,17.822,-25.452
0.778,-0.513,0.053,19.165,28.503,-26.489
0.774,-0.502,0.020,8.667,38.025,-27.405
0.779,-0.474,-0.015,-0.427,42.542,-27.466
0.807,-0.429,-0.020,-6.958,43.213,-27.710
0.886,-0.435,0.011,-10.254,43.152,-26.550
0.921,-0.460,0.016,-8.545,43.030,-24.292
0.958,-0.481,0.036,-3.784,42.175,-23.010
1.036,-0.512,0.041,4.028,37.964,-22.766
1.056,-0.530,0.006,10.254,28.503,-22.095
1.017,-0.536,-0.057,13.611,17.761,-22.217
0.980,-0.568,-0.079,14.221,11.414,-21.301
0.945,-0.551,-0.085,10.437,8.362,-18.494
0.939,-0.527,-0.067,3.357,8.301,-14.526
0.942,-0.500,-0.068,-3.174,10.010,-11.169
0.944,-0.471,-0.058,-6.775,13.245,-9.033
0.970,-0.451,-0.042,-7.874,17.395,-6.775
0.999,-0.443,-0.026,-5.737,20.508,-4.089
1.024,-0.409,-0.022,-0.671,20.447,-1.831
1.062,-0.361,-0.023,6.531,16.968,0.488
1.087,-0.320,-0.032,13.672,9.583,2.991
1.091,-0.282,-0.043,17.456,0.244,4.761
1.068,-0.243,-0.064,16.174,-7.507,5.981
1.038,-0.224,-0.059,10.620,-11.169,6.104
1.047,-0.221,-0.008,4.761,-7.507,5.554
1.050,-0.187,0.014,-0.793,-2.136,2.502
1.065,-0.160,0.025,-4.211,3.113,-1.770
1.087,-0.132,0.026,-4.333,6.714,-5.188

0.942,-0.084,0.011,5.005,4.822,1.587
0.978,-0.129,-0.043,5.188,12.085,5.249
1.025,-0.150,0.070,5.249,19.287,7.385
1.081,-0.157,0.044,-2.869,18.005,9.888
1.105,-0.190,0.005,-2.441,10.498,12.085
1.117,-0.256,-0.008,1.404,3.174,13.123
1.110,-0.327,-0.029,6.958,-4.944,13.550
1.125,-0.419,-0.050,11.719,-13.123,12.634
1.086,-0.519,-0.074,15.259,-20.752,9.705
1.012,-0.615,-0.117,16.113,-23.804,5.005
0.950,-0.687,-0.101,13.367,-16.968,0.000
0.930,-0.753,-0.066,8.606,-0.916,-4.395
0.956,-0.783,-0.070,4.333,19.104,-11.353
0.990,-0.808,-0.109,1.404,33.081,-17.822
1.047,-0.852,-0.106,0.916,38.269,-19.958
1.009,-0.884,-0.174,-0.122,36.255,-19.531
0.997,-0.962,-0.051,-3.662,32.227,-15.503
0.949,-1.017,-0.169,-15.686,19.226,-3.296
0.849,-0.895,-0.158,-23.743,27.832,11.963
0.931,-0.868,-0.002,-22.522,39.001,29.846
1.089,-0.785,0.003,-18.616,35.278,43.457
1.133,-0.670,0.019,-13.062,23.193,49.011
1.143,-0.528,0.057,-3.052,6.287,49.072
1.154,-0.474,0.090,8.545,-9.766,47.852
1.109,-0.459,0.081,22.278,-22.766,44.800
1.092,-0.474,0.011,36.316,-32.776,39.856
1.113,-0.589,-0.037,46.021,-35.645,34.973
1.128,-0.541,-0.070,45.471,-33.813,28.992
1.116,-0.432,-0.055,41.077,-35.400,21.851
1.079,-0.281,0.022,37.354,-44.800,19.165
1.008,-0.130,0.126,33.813,-64.392,24.841
0.915,0.015,0.245,26.733,-89.905,38.879
0.825,0.094,0.295,14.587,-107.544,57.129
0.766,0.111,0.267,-0.366,-106.934,72.083
0.775,0.103,0.220,-16.479,-84.900,77.393
0.813,0.108,0.169,-32.471,-47.119,69.519
0.798,0.169,0.067,-45.593,-4.944,51.270
0.745,0.287,-0.029,-52.917,33.569,28.259
0.670,0.420,-0.135,-55.603,65.857,8.301
0.603,0.537,-0.228,-53.955,87.830,-1.831
0.461,0.462,-0.194,-49.805,93.811,1.221
0.535,0.853,-0.457,-49.255,79.529,11.108
0.432,0.901,-0.319,-53.223,64.331,54.138
0.441,0.848,-0.165,-67.261,40.283,105.469
0.517,0.967,-0.148,-90.881,3.113,137.695
0.484,1.189,-0.133,-113.647,-16.418,156.311
0.591,1.398,-0.056,-126.526,-13.367,152.588
0.811,1.509,0.033,-130.310,3.967,130.920
0.987,1.488,0.109,-126.038,22.095,103.333
1.123,1.414,0.158,-111.023,23.132,76.782
1.240,1.328,0.211,-89.600,8.484,57.739
1.289,1.209,0.292,-67.444,-13.977,47.485
1.294,1.061,0.336,-46.936,-42.480,42.236
1.241,0.909,0.385,-32.532,-71.350,34.851
1.138,0.851,0.418,-27.649,-92.957,22.766
1.017,0.850,0.415,-25.757,-100.281,7.202
0.889,0.841,0.392,-18.921,-91.431,-7.812
0.757,0.762,0.351,-10.986,-71.533,-19.226
0.665,0.683,0.320,-5.005,-46.204,-24.658
0.647,0.678,0.276,-2.136,-19.653,-24.414
0.703,0.730,0.219,-2.563,3.723,-20.996
0.801,0.725,0.186,0.671,23.499,-17.456
0.897,0.771,0.184,4.639,34.485,-17.273
0.937,0.802,0.100,10.010,31.921,-18.982
0.963,0.815,0.079,21.423,28.931,-19.165
1.008,0.826,0.079,36.926,25.391,-17.334
1.021,0.814,0.049,48.279,14.526,-12.207
1.019,0.758,0.037,54.382,2.258,-3.357
1.035,0.719,0.052,57.129,-6.592,3.906
1.071,0.701,0.042,53.894,-14.709,7.751
1.073,0.719,0.068,42.175,-18.555,7.385
1.036,0.783,0.118,29.053,-18.311,2.258
0.983,0.880,0.209,22.095,-12.085,-6.897
0.954,0.943,0.279,23.560,-4.395,-16.968
0.935,0.930,0.257,32.654,3.113,-20.752
0.941,0.873,0.269,46.997,12.085,-18.433
1.012,0.735,0.275,60.181,14.954,-15.076
1.043,0.674,0.112,67.810,2.075,-18.677
0.969,0.542,-0.002,73.547,0.366,-24.963
0.968,0.425,-0.009,70.313,5.615,-31.860
0.941,0.371,-0.034,55.847,7.690,-42.419
0.868,0.419,-0.026,33.081,6.958,-53.894
0.826,0.513,0.083,13.489,11.841,-62.866
0.816,0.625,0.163,3.113,15.259,-68.176
0.865,0.618,0.234,7.996,12.207,-66.589
0.901,0.506,0.258,23.193,8.057,-57.434
0.897,0.380,0.199,39.490,5.554,-47.241
0.888,0.242,0.136,53.040,6.348,-40.894
0.895,0.113,0.077,63.049,12.024,-39.368
0.849,0.015,0.012,65.063,18.188,-42.419
0.715,-0.025,-0.071,63.721,26.794,-45.837
0.641,-0.061,-0.135,62.927,45.837,-39.917
0.713,-0.065,-0.138,58.838,69.763,-28.625
0.791,-0.071,-0.104,46.265,80.383,-26.794
0.845,-0.054,-0.020,31.860,81.421,-29.236
0.912,-0.076,0.032,25.818,76.355,-31.677
0.894,-0.103,0.058,26.428,63.904,-34.607
0.887,-0.190,0.073,34.241,51.758,-33.508
0.863,-0.264,0.010,44.861,46.814,-29.602
0.843,-0.324,-0.047,54.993,45.410,-27.832
0.876,-0.380,-0.101,61.279,44.678,-27.466
0.880,-0.394,-0.156,60.120,40.894,-29.968
0.841,-0.392,-0.256,56.213,37.842,-32.288
0.796,-0.373,-0.281,48.035,35.889,-29.663
0.866,-0.369,-0.288,40.771,36.255,-18.982
0.943,-0.375,-0.284,26.428,34.851,-7.996
1.014,-0.387,-0.246,4.517,28.870,-4.395
1.022,-0.343,-0.172,-18.372,19.348,-11.597
0.988,-0.346,-0.035,-28.931,13.184,-25.146
1.042,-0.333,-0.017,-19.714,20.447,-34.363
1.061,-0.327,-0.081,-10.010,31.250,-39.673
1.039,-0.309,-0.122,1.587,34.668,-44.495
1.032,-0.289,-0.148,12.512,32.837,-46.387
1.059,-0.274,-0.211,16.235,25.879,-44.006
1.071,-0.253,-0.324,8.240,8.911,-38.757
1.071,-0.245,-0.353,-10.620,-12.573,-30.212
1.094,-0.289,-0.304,-33.325,-33.936,-19.409
1.071,-0.288,-0.239,-53.223,-48.218,-12.878
1.042,-0.243,-0.156,-65.674,-47.791,-12.268

1.053,-0.385,0.165,-9.521,4.700,35.828
1.066,-0.377,0.068,-1.770,-2.441,41.321
1.021,-0.470,0.045,16.235,-4.883,48.340
1.010,-0.604,0.036,20.020,0.122,52.368
0.994,-0.693,0.019,26.489,14.160,53.223
1.014,-0.782,-0.014,28.381,30.029,54.932
1.057,-0.809,-0.085,26.733,45.593,57.373
1.167,-0.805,-0.098,20.142,56.274,58.960
1.255,-0.762,-0.126,10.498,55.115,59.448
1.263,-0.715,-0.195,4.089,46.326,54.993
1.315,-0.704,-0.199,2.808,41.626,45.593
1.317,-0.628,-0.260,-1.648,32.837,32.288
1.250,-0.628,-0.259,-6.653,23.621,22.278
1.219,-0.577,-0.197,-11.230,19.287,11.780
1.170,-0.546,-0.170,-15.381,19.043,2.563
1.121,-0.541,-0.172,-15.686,21.179,-6.897
1.052,-0.567,-0.170,-15.015,24.109,-15.808
0.937,-0.618,-0.159,-14.587,25.208,-20.203
0.796,-0.631,-0.192,-17.395,21.729,-19.287
0.698,-0.617,-0.101,-25.635,19.775,-11.414
0.657,-0.463,-0.173,-38.635,15.503,2.258
0.717,-0.303,-0.109,-38.696,8.362,19.836
0.805,-0.103,-0.060,-30.640,-6.714,35.461
0.839,0.057,-0.053,-19.043,-32.227,48.523
0.786,0.187,-0.105,-6.348,-59.875,56.396
0.681,0.249,-0.145,3.967,-79.041,59.265
0.562,0.230,-0.158,8.728,-80.566,60.791
0.472,0.198,-0.174,4.822,-65.857,57.678
0.458,0.197,-0.170,-7.385,-39.551,52.429
0.486,0.295,-0.187,-26.428,-10.315,49.194
0.589,0.456,-0.219,-44.922,15.930,49.683
0.642,0.540,-0.063,-57.068,35.217,53.650
0.844,1.128,-0.316,-64.514,37.781,53.894
0.851,1.435,-0.219,-58.411,45.471,72.998
0.887,1.466,-0.071,-41.687,45.776,102.295
1.184,1.329,-0.108,-35.828,23.499,124.207
1.215,1.196,-0.215,-41.992,7.507,130.920
1.205,1.120,-0.230,-54.504,7.751,121.155
1.241,1.138,-0.081,-72.876,15.564,99.426
1.299,1.202,0.133,-88.379,21.545,74.951
1.388,1.215,0.353,-89.966,13.672,52.124
1.403,1.159,0.504,-76.599,-11.780,31.616
1.310,1.082,0.663,-59.937,-46.753,14.160
1.157,1.058,0.794,-44.495,-81.787,0.183
0.940,0.993,0.763,-27.344,-109.619,-9.705
0.748,0.892,0.655,-7.629,-121.277,-14.282
0.600,0.745,0.516,11.536,-111.389,-14.893
0.500,0.651,0.394,24.597,-88.745,-13.550
0.452,0.635,0.253,28.748,-61.829,-10.559
0.466,0.665,0.168,25.940,-34.363,-3.174
0.584,0.694,0.064,21.851,-10.803,6.653
0.760,0.661,-0.028,21.912,11.902,13.672
0.923,0.634,-0.035,25.208,30.090,13.428
1.043,0.690,-0.017,25.940,34.424,5.371
1.125,0.717,0.021,24.658,30.151,-5.127
1.189,0.711,0.111,26.184,21.362,-16.479
1.158,0.710,0.146,33.264,5.249,-28.503
1.055,0.707,0.132,43.152,-11.108,-36.011
0.984,0.665,0.106,49.561,-19.348,-36.743
0.939,0.599,0.097,47.668,-19.226,-33.203
0.912,0.572,0.109,41.138,-13.855,-30.334
0.904,0.595,0.145,33.447,-5.493,-29.419
0.901,0.665,0.174,28.503,0.488,-28.748
0.922,0.730,0.190,25.818,2.747,-25.513
0.957,0.740,0.203,28.015,0.854,-20.142
0.998,0.729,0.197,34.241,-4.517,-14.282
1.038,0.697,0.149,42.297,-12.634,-10.803
1.033,0.642,0.082,50.537,-16.968,-11.902
0.976,0.568,0.039,54.382,-15.564,-16.418
0.957,0.464,0.079,49.866,-9.033,-22.217
0.905,0.453,0.034,36.255,-7.202,-29.846
0.839,0.482,0.042,20.020,-3.052,-38.696
0.840,0.605,0.148,9.460,8.179,-48.767
0.820,0.715,0.242,4.395,14.099,-59.021
0.853,0.722,0.289,12.878,16.968,-64.087
0.903,0.592,0.267,33.386,15.930,-59.021
0.912,0.441,0.237,55.115,13.184,-48.767
0.892,0.308,0.175,69.336,7.080,-38.757
0.836,0.192,0.086,74.646,3.113,-28.809
0.793,0.089,0.008,72.876,6.653,-21.301
0.786,0.023,-0.047,64.880,16.479,-18.921
0.799,-0.003,-0.089,50.842,28.748,-23.193
0.816,0.017,-0.087,34.119,41.077,-33.142
0.861,0.061,-0.040,18.616,50.415,-46.387
0.922,0.069,0.045,9.338,52.490,-58.777
0.928,0.082,0.108,10.071,48.035,-65.186
0.941,0.078,0.181,15.503,39.551,-66.467
0.944,0.003,0.198,22.583,29.785,-65.491
0.898,-0.079,0.156,29.053,23.560,-65.735
0.808,-0.133,0.008,34.424,24.902,-66.833
0.761,-0.179,-0.145,33.813,35.095,-63.721
0.794,-0.209,-0.224,31.799,49.988,-60.486
0.860,-0.203,-0.229,29.724,59.265,-57.495
0.966,-0.165,-0.156,24.536,55.725,-53.528
1.040,-0.173,-0.070,21.851,39.368,-47.913
1.086,-0.172,0.003,24.719,17.273,-45.349
1.053,-0.197,-0.007,29.907,-1.343,-47.668
0.954,-0.295,-0.022,36.804,-5.310,-52.490
0.877,-0.427,-0.042,43.213,7.874,-58.899
0.812,-0.526,-0.141,46.021,31.555,-65.430
0.806,-0.625,-0.214,42.603,56.274,-67.017
0.827,-0.652,-0.263,30.518,74.585,-63.232
0.847,-0.614,-0.310,15.808,84.778,-56.274
0.896,-0.582,-0.330,5.066,85.632,-46.143
0.982,-0.582,-0.308,-1.038,75.500,-32.410
1.053,-0.597,-0.269,-4.517,57.373,-19.775
1.082,-0.620,-0.234,-5.066,36.560,-11.414
1.086,-0.639,-0.201,-3.845,17.395,-7.263
1.056,-0.660,-0.187,-1.831,2.258,-7.324
1.010,-0.668,-0.183,1.221,-7.507,-10.620
0.926,-0.650,-0.213,5.798,-11.719,-16.785
0.857,-0.661,-0.182,7.263,-9.277,-22.339
0.811,-0.637,-0.193,8.545,-2.319,-24.902
0.785,-0.621,-0.218,7.324,6.470,-22.949
0.786,-0.612,-0.244,2.441,14.038,-17.456
0.816,-0.602,-0.246,-2.869,18.616,-8.667
0.851,-0.551,-0.234,-8.179,19.409,0.366
0.912,-0.494,-0.194,-11.719,17.090,8.484
0.968,-0.435,-0.156,-11.169,12.085,14.038

0.990,-0.532,-0.015,-5.920,13.245,39.673
1.053,-0.657,-0.035,1.892,15.564,41.443
1.057,-0.695,-0.090,-2.930,8.911,43.457
1.024,-0.791,-0.196,-4.089,-1.587,47.668
0.996,-0.916,-0.234,-3.967,-9.888,51.575
0.985,-0.953,-0.190,-6.653,-11.658,50.598
0.988,-0.974,-0.196,-14.221,-9.216,47.668
1.047,-0.929,-0.064,-20.935,-4.028,44.312
1.061,-0.897,-0.077,-29.236,-5.493,44.189
1.076,-0.843,-0.051,-34.790,-5.127,39.612
1.058,-0.803,0.001,-36.621,1.221,37.292
1.052,-0.705,-0.023,-40.894,6.348,32.104
1.068,-0.581,-0.065,-41.626,13.916,22.827
1.072,-0.538,-0.136,-34.851,23.865,10.742
1.044,-0.499,-0.214,-28.870,30.884,-1.160
0.995,-0.442,-0.259,-28.687,32.959,-8.423
0.969,-0.354,-0.266,-31.372,30.823,-10.681
0.909,-0.242,-0.292,-33.508,25.818,-12.390
0.780,-0.224,-0.428,-36.499,20.447,-13.550
0.652,0.002,-0.346,-47.241,14.893,-10.315
0.572,0.183,-0.274,-51.208,10.437,0.549
0.507,0.309,-0.199,-53.833,8.362,24.231
0.466,0.483,-0.078,-54.504,3.052,52.795
0.456,0.683,-0.031,-53.955,-0.244,78.430
0.510,0.921,-0.056,-47.913,3.418,92.163
0.621,1.072,-0.035,-36.072,16.113,93.994
0.734,1.230,-0.059,-23.254,33.569,85.938
0.780,1.212,-0.013,-11.841,45.532,68.115
0.942,1.544,-0.308,-4.883,45.288,49.255
0.947,1.313,-0.144,-7.629,47.241,69.214
1.090,1.012,0.019,-21.973,14.954,87.952
1.103,1.038,0.133,-46.448,-41.809,96.375
1.073,1.058,0.330,-64.148,-89.722,105.469
1.002,1.099,0.544,-62.988,-104.492,105.957
1.003,1.125,0.657,-51.880,-102.905,90.637
1.046,1.036,0.663,-40.466,-95.276,67.688
1.046,0.940,0.555,-35.583,-78.491,43.518
1.052,0.953,0.500,-33.264,-52.673,23.010
1.148,1.001,0.500,-27.527,-24.109,7.080
1.212,0.985,0.491,-15.991,-3.418,-4.639
1.203,0.922,0.445,1.343,3.845,-13.611
1.171,0.803,0.354,16.785,1.343,-20.996
1.056,0.677,0.224,25.024,-4.822,-26.062
0.937,0.604,0.097,26.550,-5.920,-28.198
0.925,0.606,0.071,24.719,-1.526,-28.503
0.985,0.595,0.048,25.696,4.028,-27.161
1.042,0.571,0.077,25.574,10.193,-24.475
1.105,0.570,0.068,22.400,5.493,-21.545
1.143,0.563,0.048,19.104,-2.625,-19.287
1.176,0.579,0.094,17.273,-9.277,-20.264
1.165,0.621,0.142,17.151,-17.029,-23.254
1.115,0.628,0.168,19.714,-25.085,-24.658
1.050,0.615,0.191,24.170,-31.738,-22.766
0.979,0.631,0.227,25.024,-35.156,-17.273
0.990,0.618,0.294,25.879,-34.607,-10.742
0.931,0.609,0.302,30.518,-34.424,-5.493
0.867,0.578,0.229,35.767,-30.090,-1.953
0.876,0.540,0.180,41.077,-16.357,0.732
0.981,0.497,0.208,43.579,1.221,2.625
1.068,0.506,0.243,39.063,10.193,1.709
1.090,0.600,0.228,30.273,7.446,-3.784
1.120,0.665,0.182,27.344,0.366,-13.794
1.103,0.632,0.143,33.142,-2.808,-26.123
1.044,0.561,0.133,38.391,-1.953,-39.246
1.014,0.477,0.148,40.161,-0.732,-50.903
0.938,0.402,0.153,42.603,-0.793,-58.105
0.862,0.322,0.123,43.152,1.831,-62.073
0.845,0.214,0.082,45.166,8.301,-61.157
0.839,0.156,0.072,45.593,14.526,-56.702
0.849,0.179,0.124,39.001,14.954,-50.964
0.862,0.240,0.179,33.325,5.493,-43.884
0.848,0.289,0.180,32.898,-10.071,-37.048
0.808,0.261,0.131,38.818,-23.254,-31.616
0.784,0.128,0.059,45.349,-28.564,-26.794
0.794,-0.016,-0.027,45.837,-23.010,-22.034
0.801,-0.155,-0.041,44.373,-3.174,-21.790
0.857,-0.233,-0.008,40.405,21.790,-29.724
0.901,-0.229,0.010,31.128,37.537,-41.199
0.867,-0.193,0.044,21.484,46.509,-51.819
0.856,-0.126,0.077,12.390,52.551,-58.472
0.872,-0.044,0.083,6.714,53.284,-58.044
0.886,-0.003,0.128,6.714,45.288,-51.208
0.882,0.051,0.181,11.353,28.687,-42.358
0.875,0.036,0.185,17.456,8.057,-31.067
0.897,-0.084,0.173,23.926,-6.958,-17.029
0.891,-0.210,0.090,32.104,-13.123,-7.874
0.887,-0.308,-0.014,39.917,-7.812,-6.348
0.933,-0.407,-0.036,45.532,9.216,-11.597
1.010,-0.443,-0.005,43.762,29.358,-23.560
1.055,-0.336,0.011,36.316,40.588,-42.114
1.040,-0.227,-0.011,36.926,42.419,-58.838
0.994,-0.212,-0.028,43.274,36.255,-65.674
0.935,-0.232,-0.058,39.795,24.597,-61.829
0.899,-0.264,-0.079,32.288,11.963,-52.734
0.844,-0.292,-0.086,27.588,2.625,-45.593
0.875,-0.383,-0.067,24.536,0.488,-39.063
0.923,-0.492,-0.068,22.217,1.709,-34.180
0.915,-0.610,-0.108,19.592,3.601,-34.912
0.889,-0.677,-0.136,16.479,10.071,-39.368
0.875,-0.726,-0.141,14.099,20.386,-45.532
0.865,-0.736,-0.160,12.207,30.212,-49.683
0.870,-0.704,-0.199,7.629,35.156,-47.913
0.935,-0.680,-0.223,0.977,31.921,-38.940
0.994,-0.647,-0.204,-4.517,21.362,-28.137
0.995,-0.594,-0.201,-9.094,4.333,-20.569
0.951,-0.531,-0.227,-10.742,-10.559,-14.648
0.932,-0.507,-0.236,-7.568,-17.517,-7.263
0.953,-0.525,-0.220,-2.502,-18.433,-0.305
0.972,-0.564,-0.198,1.404,-17.212,4.700
0.953,-0.535,-0.204,3.723,-16.968,7.812
0.934,-0.500,-0.193,6.531,-15.991,10.864
0.957,-0.502,-0.179,7.568,-12.878,15.076
0.972,-0.488,-0.134,3.906,-10.254,17.761
0.993,-0.437,-0.105,-2.686,-8.789,18.677
1.011,-0.317,-0.066,-11.414,-9.216,18.433
1.034,-0.220,0.002,-17.517,-9.460,20.264
1.056,-0.148,0.070,-19.348,-10.254,22.034
1.054,-0.082,0.101,-16.907,-11.169,21.667
1.058,-0.073,0.123,-8.972,-8.850,19.653

0.946,-0.715,-0.314,-4.639,-3.418,36.804
0.961,-0.751,-0.330,-16.785,8.423,38.025
0.998,-0.766,-0.253,-25.085,16.296,42.725
1.023,-0.652,-0.184,-34.668,18.677,48.706
1.074,-0.622,-0.138,-37.415,11.047,57.190
1.116,-0.639,-0.134,-33.630,-0.732,63.721
1.117,-0.710,-0.157,-28.259,-9.827,65.247
1.116,-0.803,-0.210,-27.222,-14.343,63.171
1.191,-0.746,-0.017,-31.372,-10.925,60.974
1.151,-0.652,0.023,-40.466,-11.414,61.768
1.170,-0.469,0.045,-40.894,-10.498,56.458
1.173,-0.467,0.108,-28.198,-8.728,54.138
1.131,-0.451,0.110,-21.362,-19.226,49.988
1.067,-0.301,0.096,-22.644,-34.790,42.969
1.042,-0.232,0.089,-20.935,-39.124,33.447
1.002,-0.221,-0.002,-16.541,-30.396,13.916
0.869,-0.219,-0.094,-20.081,-15.869,-8.667
0.738,-0.138,-0.246,-37.659,-2.563,-24.353
0.562,-0.044,-0.368,-65.491,17.456,-20.325
0.569,-0.053,-0.308,-103.027,47.302,-0.610
0.589,0.053,-0.260,-119.873,65.613,15.686
0.632,0.276,-0.278,-126.831,69.763,27.283
0.670,0.538,-0.277,-124.146,65.247,40.955
0.579,0.521,-0.169,-109.131,53.772,56.091
0.563,0.784,-0.083,-100.220,34.729,70.190
0.576,1.066,0.056,-101.074,5.676,85.876
0.534,1.242,0.198,-96.375,-29.785,105.530
0.462,1.069,0.375,-93.384,-62.500,121.704
0.500,1.493,0.235,-89.111,-83.191,122.681
0.372,1.409,0.283,-82.581,-66.772,140.259
0.438,1.281,0.308,-79.041,-37.781,147.278
0.632,1.331,0.161,-82.214,-7.629,130.493
0.863,1.525,0.153,-85.632,29.114,112.183
1.151,1.596,0.261,-77.942,60.486,93.872
1.421,1.522,0.376,-57.861,67.017,76.172
1.575,1.424,0.437,-32.654,44.250,57.617
1.590,1.289,0.415,-13.062,6.836,38.635
1.489,1.162,0.395,-4.578,-27.039,18.433
1.358,1.046,0.392,-0.549,-46.692,-3.479
1.202,0.943,0.447,3.601,-50.537,-24.658
1.030,0.863,0.489,10.376,-44.128,-38.940
0.895,0.752,0.452,17.395,-36.133,-43.152
0.827,0.688,0.341,20.142,-30.579,-39.917
0.787,0.648,0.275,20.020,-23.560,-33.813
0.767,0.623,0.222,22.522,-15.259,-28.076
0.764,0.629,0.178,27.344,-7.385,-24.841
0.787,0.638,0.148,29.968,-0.610,-23.743
0.829,0.625,0.132,29.175,2.930,-25.085
0.844,0.618,0.122,26.001,3.723,-28.992
0.818,0.645,0.112,20.874,1.343,-32.776
0.816,0.630,0.091,18.677,-0.977,-34.180
0.851,0.625,0.112,21.118,2.441,-36.438
0.871,0.674,0.091,27.039,5.676,-38.391
0.883,0.657,0.072,34.241,5.432,-34.546
0.926,0.615,0.097,35.583,1.038,-25.452
0.975,0.640,0.132,31.067,-7.202,-15.991
1.004,0.628,0.137,26.611,-16.968,-10.498
1.004,0.613,0.117,27.222,-26.550,-10.498
0.989,0.641,0.106,27.649,-35.889,-11.719
0.953,0.670,0.141,20.935,-45.776,-9.888
0.843,0.707,0.140,11.230,-56.763,-5.981
0.797,0.732,0.239,1.892,-61.584,-0.244
0.814,0.648,0.401,0.671,-56.885,7.568
0.782,0.554,0.433,8.057,-50.476,12.268
0.730,0.420,0.356,16.296,-40.894,10.498
0.742,0.344,0.237,20.447,-24.048,6.104
0.767,0.369,0.210,17.639,-4.272,2.380
0.784,0.381,0.214,9.888,11.597,-2.197
0.769,0.485,0.199,1.404,21.606,-10.376
0.768,0.590,0.195,0.977,26.489,-16.235
0.814,0.601,0.214,13.794,21.667,-15.442
0.926,0.522,0.212,33.630,7.751,-6.409
1.008,0.402,0.196,51.514,-7.324,5.127
0.988,0.286,0.159,65.186,-19.165,11.047
0.921,0.072,0.028,78.064,-26.184,10.925
0.863,-0.157,-0.216,81.726,-19.775,2.380
0.836,-0.204,-0.211,73.120,8.057,-15.991
0.798,-0.211,-0.129,54.443,35.278,-29.907
0.803,-0.129,-0.100,36.255,52.002,-43.945
0.785,-0.013,-0.031,18.616,60.120,-51.514
0.773,0.066,0.036,5.066,58.533,-52.856
0.810,0.128,0.103,-0.488,50.171,-49.255
0.852,0.169,0.163,2.502,35.645,-39.795
0.905,0.137,0.188,10.376,17.517,-27.222
0.950,0.106,0.168,18.311,2.625,-14.282
0.990,0.030,0.111,27.466,-4.517,-5.188
1.016,-0.091,0.031,34.241,-6.348,-2.625
0.979,-0.159,-0.030,36.682,-2.869,-8.667
0.904,-0.154,-0.059,31.067,7.385,-20.142
0.881,-0.136,-0.014,18.616,21.057,-31.311
0.868,-0.091,0.034,5.798,30.762,-41.260
0.846,-0.016,0.054,-2.747,36.804,-50.110
0.847,0.057,0.064,-5.737,40.649,-55.054
0.904,0.062,0.110,-3.113,42.114,-54.077
0.962,0.021,0.108,0.977,39.551,-44.678
1.003,-0.026,0.110,3.174,30.945,-30.640
1.061,-0.126,0.094,2.869,19.165,-17.822
1.098,-0.256,0.060,4.028,6.592,-9.583
1.105,-0.319,0.069,4.578,-6.470,-5.920
1.048,-0.278,0.058,2.014,-21.362,-7.263
0.982,-0.233,0.035,-1.709,-30.334,-12.695
0.927,-0.191,0.045,-6.714,-26.367,-21.423
0.921,-0.142,0.091,-14.709,-11.658,-30.884
0.969,-0.140,0.121,-22.827,4.211,-38.574
1.033,-0.166,0.138,-26.245,17.944,-44.006
1.112,-0.198,0.153,-24.475,26.733,-46.936
1.177,-0.231,0.158,-17.334,26.245,-46.936
1.211,-0.288,0.123,-7.019,17.578,-44.250
1.210,-0.365,0.045,2.747,2.808,-39.734
1.174,-0.411,-0.028,7.935,-14.526,-33.020
1.119,-0.410,-0.062,5.798,-30.334,-24.841
1.055,-0.375,-0.073,-0.854,-39.063,-17.700
1.008,-0.284,-0.063,-8.423,-37.842,-12.024
1.043,-0.253,0.006,-13.733,-25.513,-9.094
1.064,-0.193,0.055,-14.343,-7.446,-11.169
1.091,-0.123,0.060,-12.939,8.179,-14.282
1.156,-0.108,0.093,-7.996,18.677,-14.099
1.189,-0.099,0.105,-0.427,20.508,-13.367
1.225,-0.092,0.109,8.240,15.991,-12.756

1.002,-0.486,-0.108,-11.047,39.856,6.836
1.075,-0.539,-0.042,-12.390,45.044,19.226
1.123,-0.611,-0.044,-14.709,41.199,32.776
1.107,-0.527,-0.185,-19.348,30.823,42.358
1.113,-0.639,-0.130,-16.296,23.193,55.847
1.156,-0.772,-0.116,-13.184,12.390,70.862
1.188,-0.811,-0.114,-12.146,2.258,81.970
1.269,-0.737,-0.089,-11.719,-9.277,89.172
1.312,-0.680,-0.076,-11.902,-26.917,94.971
1.313,-0.661,-0.054,-16.052,-41.870,89.966
1.247,-0.625,-0.036,-27.283,-44.922,73.120
1.133,-0.508,0.018,-44.678,-34.119,48.279
1.059,-0.418,0.119,-59.753,-14.893,30.029
1.062,-0.342,0.186,-65.857,5.188,19.958
1.111,-0.261,0.196,-60.608,19.043,13.123
1.114,-0.218,0.113,-45.715,20.203,11.108
1.061,-0.206,0.003,-28.687,11.414,13.123
0.979,-0.179,-0.120,-19.653,0.549,13.977
0.887,-0.090,-0.204,-19.897,-4.272,10.010
0.837,0.067,-0.207,-24.902,-0.854,1.648
0.810,0.276,-0.006,-33.081,7.690,-7.629
0.667,0.453,-0.104,-36.621,13.184,-14.343
0.517,0.533,-0.085,-25.940,15.076,-13.062
0.391,0.553,-0.035,-28.625,17.395,-1.343
0.344,0.563,-0.036,-38.025,19.348,15.442
0.344,0.582,-0.046,-49.744,22.034,32.227
0.377,0.663,-0.072,-59.753,24.658,46.692
0.391,0.846,-0.074,-65.552,23.254,59.326
0.408,1.064,-0.039,-66.467,19.958,72.144
0.482,1.197,-0.038,-58.167,11.230,86.487
0.502,1.214,0.026,-51.025,-1.892,97.717
0.692,1.574,-0.078,-44.373,-13.306,101.929
0.691,1.336,0.082,-37.537,-8.606,122.986
0.885,1.145,0.125,-38.086,-15.137,116.821
0.881,1.324,0.111,-44.983,-18.799,93.750
1.010,1.216,0.178,-41.321,-11.536,74.280
1.101,1.202,0.276,-37.109,3.357,57.922
1.206,1.137,0.355,-31.067,10.803,38.513
1.283,1.088,0.387,-20.020,2.075,17.395
1.271,1.055,0.404,-7.812,-16.724,1.770
1.201,0.992,0.406,4.639,-38.086,-5.066
1.113,0.889,0.403,18.860,-56.946,-8.850
1.008,0.798,0.382,29.724,-70.496,-9.216
0.910,0.712,0.345,35.400,-74.524,-9.094
0.815,0.648,0.313,36.438,-69.519,-11.292
0.741,0.608,0.285,34.912,-57.312,-14.404
0.737,0.566,0.237,33.142,-40.161,-17.517
0.723,0.570,0.229,30.884,-21.790,-20.081
0.775,0.589,0.212,26.611,-6.714,-20.569
0.870,0.607,0.228,18.677,4.333,-20.386
0.940,0.661,0.259,14.282,9.338,-21.851
0.972,0.697,0.254,15.808,7.629,-24.048
1.002,0.711,0.255,22.034,4.150,-24.841
1.021,0.711,0.237,27.954,-0.427,-24.231
1.022,0.695,0.234,30.273,-3.845,-22.217
1.011,0.699,0.229,30.579,-6.714,-19.348
1.001,0.710,0.236,30.334,-8.789,-17.334
0.995,0.688,0.226,35.339,-9.644,-17.578
0.976,0.679,0.212,41.870,-8.789,-18.494
0.973,0.650,0.183,47.363,-7.568,-20.935
0.969,0.595,0.150,48.157,-7.141,-23.193
0.984,0.539,0.131,43.030,-8.179,-25.146
1.000,0.504,0.130,34.485,-11.536,-28.564
0.988,0.485,0.153,24.414,-16.968,-33.020
0.951,0.510,0.203,15.503,-22.583,-37.170
0.937,0.606,0.384,8.972,-26.062,-41.748
0.838,0.632,0.380,8.484,-26.855,-46.204
0.792,0.635,0.325,20.508,-20.996,-45.776
0.768,0.562,0.247,38.025,-9.827,-41.992
0.763,0.496,0.181,45.227,-0.427,-36.804
0.782,0.483,0.161,43.701,3.052,-33.142
0.847,0.442,0.175,40.039,0.305,-30.090
0.930,0.312,0.187,41.199,-7.080,-25.513
0.933,0.161,0.141,46.753,-15.259,-23.315
0.882,0.061,0.103,51.636,-17.456,-25.757
0.838,0.022,0.119,51.636,-11.780,-30.212
0.819,0.000,0.119,43.152,-2.380,-33.447
0.798,-0.018,0.122,29.419,8.362,-36.194
0.764,0.043,0.092,16.418,19.287,-40.894
0.749,0.172,0.111,7.263,33.142,-45.410
0.768,0.260,0.157,4.883,45.288,-47.241
0.850,0.279,0.219,8.240,48.096,-45.776
0.917,0.134,0.280,16.907,39.612,-42.053
0.920,0.104,0.208,25.940,25.818,-40.222
0.863,0.017,0.162,29.114,14.893,-31.250
0.849,-0.093,0.107,33.630,13.855,-24.231
0.880,-0.232,0.080,38.208,22.156,-20.020
0.869,-0.349,0.027,35.461,32.288,-20.020
0.864,-0.381,-0.027,26.428,43.335,-26.794
0.857,-0.313,-0.032,12.512,56.213,-32.959
0.857,-0.198,-0.019,-0.732,63.965,-35.034
0.871,-0.097,-0.006,-7.141,66.528,-33.997
0.880,-0.028,0.048,-6.775,64.575,-31.494
0.924,-0.045,0.103,-1.038,54.810,-27.344
0.973,-0.167,0.063,8.301,40.283,-20.325
0.989,-0.247,0.036,14.343,29.602,-14.099
1.012,-0.291,0.009,16.418,24.170,-11.902
1.007,-0.357,-0.047,18.127,20.935,-11.963
0.990,-0.398,-0.083,16.052,19.897,-12.695
0.989,-0.407,-0.078,6.714,21.118,-15.015
0.971,-0.370,-0.093,-4.822,20.142,-17.700
0.949,-0.313,-0.089,-16.357,19.897,-19.958
0.947,-0.258,-0.070,-25.818,21.790,-22.339
0.962,-0.199,-0.036,-29.297,25.024,-24.353
0.997,-0.166,0.009,-25.879,25.024,-26.428
1.039,-0.157,0.028,-17.822,19.653,-25.513
1.053,-0.173,0.032,-5.737,10.864,-21.606
1.046,-0.256,0.021,7.080,1.404,-15.991
1.045,-0.321,0.003,18.494,-3.906,-11.963
1.011,-0.350,-0.023,25.757,-5.127,-11.597
0.977,-0.354,-0.087,26.978,-4.578,-10.742
0.971,-0.359,-0.141,21.851,-2.747,-7.446
0.988,-0.350,-0.158,10.315,-0.122,-3.052
1.004,-0.301,-0.153,-2.197,3.174,-0.244
1.039,-0.237,-0.119,-11.414,8.179,-0.732
1.093,-0.194,-0.084,-15.381,13.794,-4.089
1.130,-0.175,-0.062,-13.855,17.090,-8.667
1.155,-0.170,-0.045,-8.972,15.991,-13.245
1.158,-0.176,-0.039,-3.906,9.705,-16.113

